#time,accel_x,accel_y,accel_z
993.787695,-9400.615463,-370.102971,-153.219100
993.788011,-9474.636058,-296.082377,0.000000
993.788327,-9622.677246,-370.102971,153.219100
993.788642,-9326.594869,-518.144159,0.000000
993.788958,-9400.615463,0.000000,766.095498
993.789273,-9474.636058,-444.123565,76.609550
993.789589,-9474.636058,-370.102971,0.000000
993.789904,-9474.636058,-370.102971,76.609550
993.790220,-9474.636058,-296.082377,76.609550
993.790535,-9178.553681,-666.185348,612.876398
993.790851,-9474.636058,-296.082377,0.000000
993.791167,-9474.636058,-370.102971,0.000000
993.791482,-9622.677246,-222.061783,0.000000
993.791798,-9400.615463,-222.061783,689.485948
993.792113,-9622.677246,-296.082377,-229.828649
993.792429,-9622.677246,-222.061783,229.828649
993.792744,-9474.636058,-296.082377,459.657299
993.793060,-9474.636058,-222.061783,0.000000
993.793375,-9770.718434,-74.020594,306.438199
993.793691,-9548.656652,-370.102971,0.000000
993.794007,-9400.615463,-370.102971,0.000000
993.794322,-9548.656652,-370.102971,0.000000
993.794638,-9400.615463,-222.061783,0.000000
993.794953,-9548.656652,-296.082377,-766.095498
993.795269,-9474.636058,-296.082377,76.609550
993.795584,-9474.636058,-370.102971,76.609550
993.795900,-9400.615463,-666.185348,0.000000
993.796215,-9548.656652,0.000000,-995.924147
993.796531,-9400.615463,-518.144159,0.000000
993.796847,-9474.636058,-148.041188,0.000000
993.797162,-9696.697840,-222.061783,306.438199
993.797478,-9548.656652,-888.247130,-306.438199
993.797793,-9918.759623,-962.267725,0.000000
993.798109,-9178.553681,-370.102971,-689.485948
993.798424,-9696.697840,0.000000,-536.266849
993.798740,-9400.615463,-518.144159,-229.828649
993.799055,-9548.656652,-740.205942,383.047749
993.799371,-8956.491898,-370.102971,-842.705048
993.799687,-9844.739029,0.000000,0.000000
993.800002,-9770.718434,-444.123565,0.000000
993.800318,-9622.677246,-222.061783,-383.047749
993.800633,-9252.574275,-444.123565,766.095498
993.800949,-9770.718434,74.020594,-306.438199
993.801264,-9696.697840,-370.102971,0.000000
993.801580,-9400.615463,-740.205942,-612.876398
993.801895,-9252.574275,-592.164754,-689.485948
993.802211,-9178.553681,-1110.308913,-306.438199
993.802527,-9326.594869,-666.185348,-766.095498
993.802842,-9326.594869,-962.267725,-612.876398
993.803158,-9104.533087,-814.226536,-995.924147
993.803473,-8734.430116,-592.164754,-1608.800546
993.803789,-10362.883188,-370.102971,-383.047749
993.804104,-9696.697840,-740.205942,-153.219100
993.804420,-9252.574275,0.000000,-153.219100
993.804735,-10066.800811,-370.102971,-306.438199
993.805051,-9474.636058,-296.082377,76.609550
993.805367,-9992.780217,0.000000,153.219100
993.805682,-9770.718434,0.000000,76.609550
993.805998,-9030.512492,-222.061783,-229.828649
993.806313,-10214.842000,-740.205942,0.000000
993.806629,-9104.533087,0.000000,-459.657299
993.806944,-9326.594869,-888.247130,0.000000
993.807260,-9030.512492,-962.267725,-842.705048
993.807575,-9474.636058,-1332.370696,-383.047749
993.807891,-9474.636058,-1110.308913,-306.438199
993.808207,-8956.491898,-1184.329507,-306.438199
993.808522,-9474.636058,-666.185348,-229.828649
993.808838,-9474.636058,-1110.308913,0.000000
993.809153,-9918.759623,-666.185348,383.047749
993.809469,-9474.636058,592.164754,306.438199
993.809784,-9474.636058,-296.082377,76.609550
993.810100,-9474.636058,-666.185348,229.828649
993.810415,-9844.739029,-222.061783,383.047749
993.810731,-9474.636058,-888.247130,153.219100
993.811047,-9622.677246,-296.082377,842.705048
993.811362,-9326.594869,-1036.288319,0.000000
993.811678,-9548.656652,-1110.308913,-306.438199
993.811993,-9400.615463,-888.247130,-229.828649
993.812309,-8290.306550,-1998.556043,-536.266849
993.812624,-9030.512492,-888.247130,-689.485948
993.812940,-9104.533087,-1480.411884,-459.657299
993.813255,-9622.677246,-888.247130,0.000000
993.813571,-9104.533087,-888.247130,0.000000
993.813887,-9252.574275,-740.205942,76.609550
993.814202,-9770.718434,-444.123565,306.438199
993.814518,-9844.739029,-222.061783,383.047749
993.814833,-9918.759623,0.000000,306.438199
993.815149,-9474.636058,370.102971,306.438199
993.815464,-10288.862594,-370.102971,0.000000
993.815780,-9548.656652,-148.041188,-153.219100
993.816095,-9400.615463,-222.061783,-383.047749
993.816411,-9400.615463,-1554.432478,-383.047749
993.816726,-9104.533087,-962.267725,-1915.238745
993.817042,-9178.553681,-1776.494261,-459.657299
993.817358,-8956.491898,-1258.350101,-536.266849
993.817673,-8882.471304,-962.267725,-689.485948
993.817989,-9252.574275,-962.267725,-459.657299
993.818304,-9622.677246,-814.226536,459.657299
993.818620,-9622.677246,-518.144159,-689.485948
993.818935,-9918.759623,-518.144159,-383.047749
993.819251,-9992.780217,0.000000,-153.219100
993.819566,-9992.780217,-296.082377,0.000000
993.819882,-9474.636058,0.000000,0.000000
993.820198,-9992.780217,0.000000,76.609550
993.820513,-9770.718434,-444.123565,0.000000
993.820829,-9622.677246,-666.185348,-229.828649
993.821144,-9252.574275,-740.205942,536.266849
993.821460,-9474.636058,-1184.329507,-612.876398
993.821775,-9400.615463,-1480.411884,-995.924147
993.822091,-9252.574275,-1332.370696,-995.924147
993.822406,-9178.553681,-1110.308913,-919.314598
993.822722,-9178.553681,-592.164754,-1225.752797
993.823038,-9474.636058,-370.102971,-536.266849
993.823353,-9548.656652,-222.061783,-383.047749
993.823669,-9622.677246,0.000000,-153.219100
993.823984,-9548.656652,74.020594,-306.438199
993.824300,-9844.739029,148.041188,0.000000
993.824615,-9992.780217,148.041188,229.828649
993.824931,-9918.759623,-222.061783,0.000000
993.825246,-9474.636058,-592.164754,-153.219100
993.825562,-8438.347739,-888.247130,689.485948
993.825878,-9474.636058,-888.247130,-383.047749
993.826193,-9252.574275,-740.205942,-459.657299
993.826509,-9178.553681,-1110.308913,-383.047749
993.826824,-9104.533087,-1258.350101,0.000000
993.827140,-8734.430116,-666.185348,-229.828649
993.827455,-9696.697840,-1036.288319,766.095498
993.827771,-9844.739029,-1184.329507,919.314598
993.828086,-9770.718434,-1258.350101,919.314598
993.828402,-10066.800811,-1184.329507,1225.752797
993.828718,-10140.821405,-666.185348,689.485948
993.829033,-9474.636058,-444.123565,919.314598
993.829349,-9474.636058,-370.102971,689.485948
993.829664,-9400.615463,-962.267725,612.876398
993.829980,-9252.574275,-1036.288319,229.828649
993.830295,-9252.574275,-1776.494261,-229.828649
993.830611,-8808.450710,-2368.659014,-153.219100
993.830926,-8734.430116,-2960.823768,-766.095498
993.831242,-8438.347739,-3182.885551,-689.485948
993.831558,-8586.388927,-2442.679609,-766.095498
993.831873,-8660.409521,-2886.803174,-1149.143247
993.832189,-8808.450710,-1924.535449,-383.047749
993.832504,-9030.512492,-1702.473667,153.219100
993.832820,-9548.656652,-1702.473667,306.438199
993.833135,-9770.718434,-666.185348,995.924147
993.833451,-10584.944971,-1554.432478,536.266849
993.833766,-9178.553681,-444.123565,76.609550
993.834082,-10510.924376,-518.144159,1072.533697
993.834398,-9770.718434,0.000000,612.876398
993.834713,-9622.677246,-592.164754,153.219100
993.835029,-9696.697840,-296.082377,306.438199
993.835344,-9474.636058,0.000000,689.485948
993.835660,-9770.718434,-222.061783,76.609550
993.835975,-9548.656652,-222.061783,76.609550
993.836291,-9474.636058,222.061783,0.000000
993.836606,-9770.718434,0.000000,0.000000
993.836922,-9622.677246,370.102971,-229.828649
993.837238,-9992.780217,592.164754,-1532.190996
993.837553,-9696.697840,888.247130,-612.876398
993.837869,-10066.800811,1332.370696,-229.828649
993.838184,-10510.924376,2146.597232,229.828649
993.838500,-10658.965565,2220.617826,689.485948
993.838815,-9992.780217,2590.720797,612.876398
993.839131,-11177.109724,2812.782580,1225.752797
993.839446,-11103.089130,3478.967927,1455.581446
993.839762,-10658.965565,3552.988522,1915.238745
993.840078,-10732.986159,2960.823768,1302.362347
993.840393,-10436.903782,3775.050304,1455.581446
993.840709,-10436.903782,2738.761985,842.705048
993.841024,-10214.842000,3404.947333,919.314598
993.841340,-9178.553681,2886.803174,536.266849
993.841655,-9844.739029,2072.576638,0.000000
993.841971,-8586.388927,2146.597232,0.000000
993.842286,-9400.615463,1776.494261,-153.219100
993.842602,-8142.265362,444.123565,-306.438199
993.842918,-8882.471304,962.267725,0.000000
993.843233,-8734.430116,1406.391290,0.000000
993.843549,-8290.306550,222.061783,76.609550
993.843864,-8142.265362,-296.082377,229.828649
993.844180,-8586.388927,-740.205942,383.047749
993.844495,-7920.203579,-370.102971,459.657299
993.844811,-8734.430116,-1406.391290,689.485948
993.845126,-7994.224174,-1480.411884,612.876398
993.845442,-8364.327145,-2664.741391,1225.752797
993.845758,-8438.347739,-2516.700203,1149.143247
993.846073,-7994.224174,-2738.761985,995.924147
993.846389,-8586.388927,-2368.659014,1455.581446
993.846704,-7920.203579,-1924.535449,842.705048
993.847020,-8364.327145,-2146.597232,919.314598
993.847335,-8512.368333,-1702.473667,459.657299
993.847651,-7328.038826,-1628.453072,229.828649
993.847966,-9104.533087,0.000000,919.314598
993.848282,-8660.409521,0.000000,383.047749
993.848597,-8808.450710,148.041188,383.047749
993.848913,-9548.656652,222.061783,306.438199
993.849229,-8068.244768,0.000000,0.000000
993.849544,-9622.677246,222.061783,76.609550
993.849860,-9770.718434,148.041188,306.438199
993.850175,-10066.800811,-222.061783,229.828649
993.850491,-10214.842000,74.020594,153.219100
993.850806,-10362.883188,-148.041188,306.438199
993.851122,-10584.944971,592.164754,842.705048
993.851437,-11029.068536,0.000000,306.438199
993.851753,-11251.130318,0.000000,76.609550
993.852069,-11103.089130,740.205942,153.219100
993.852384,-11103.089130,518.144159,76.609550
993.852700,-11399.171507,148.041188,383.047749
993.853015,-10955.047942,148.041188,-306.438199
993.853331,-10658.965565,444.123565,-383.047749
993.853646,-10732.986159,962.267725,-842.705048
993.853962,-10807.006753,592.164754,229.828649
993.854277,-11103.089130,222.061783,306.438199
993.854593,-10214.842000,0.000000,0.000000
993.854909,-9696.697840,222.061783,-459.657299
993.855224,-10140.821405,740.205942,153.219100
993.855540,-9918.759623,444.123565,0.000000
993.855855,-10066.800811,222.061783,0.000000
993.856171,-9844.739029,296.082377,0.000000
993.856486,-10066.800811,518.144159,1608.800546
993.856802,-10362.883188,222.061783,919.314598
993.857117,-9770.718434,74.020594,459.657299
993.857433,-9030.512492,0.000000,0.000000
993.857749,-9474.636058,444.123565,153.219100
993.858064,-9992.780217,0.000000,1532.190996
993.858380,-8956.491898,-148.041188,536.266849
993.858695,-8882.471304,-444.123565,383.047749
993.859011,-9178.553681,-444.123565,612.876398
993.859326,-9178.553681,0.000000,842.705048
993.859642,-8734.430116,518.144159,995.924147
993.859957,-8142.265362,74.020594,459.657299
993.860273,-7994.224174,-370.102971,383.047749
993.860589,-8660.409521,-814.226536,229.828649
993.860904,-8290.306550,-222.061783,0.000000
993.861220,-7846.182985,-666.185348,153.219100
993.861535,-8068.244768,-962.267725,0.000000
993.861851,-8364.327145,-1554.432478,306.438199
993.862166,-8364.327145,-1702.473667,0.000000
993.862482,-7402.059420,-2294.638420,1302.362347
993.862797,-8438.347739,-1332.370696,0.000000
993.863113,-9030.512492,-1332.370696,306.438199
993.863429,-9326.594869,-1110.308913,612.876398
993.863744,-8808.450710,-1258.350101,1455.581446
993.864060,-9030.512492,-1184.329507,-306.438199
993.864375,-9548.656652,-740.205942,383.047749
993.864691,-9474.636058,-518.144159,995.924147
993.865006,-9474.636058,-370.102971,459.657299
993.865322,-10066.800811,222.061783,766.095498
993.865638,-9326.594869,-666.185348,0.000000
993.865953,-9474.636058,-518.144159,153.219100
993.866269,-9326.594869,0.000000,-153.219100
993.866584,-9252.574275,518.144159,76.609550
993.866900,-9844.739029,666.185348,1685.410096
993.867216,-10140.821405,296.082377,766.095498
993.867531,-9770.718434,-222.061783,842.705048
993.867847,-9770.718434,-370.102971,76.609550
993.868163,-9696.697840,74.020594,0.000000
993.868478,-10214.842000,370.102971,383.047749
993.868794,-9918.759623,222.061783,306.438199
993.869110,-9770.718434,-296.082377,-306.438199
993.869425,-9622.677246,-518.144159,-229.828649
993.869741,-9178.553681,-666.185348,-306.438199
993.870057,-10436.903782,-296.082377,536.266849
993.870372,-9844.739029,-444.123565,229.828649
993.870688,-9918.759623,-222.061783,-229.828649
993.871003,-10140.821405,592.164754,459.657299
993.871319,-10658.965565,74.020594,2834.553343
993.871635,-10584.944971,148.041188,995.924147
993.871950,-10362.883188,444.123565,766.095498
993.872266,-10881.027347,592.164754,919.314598
993.872582,-11325.150913,740.205942,842.705048
993.872897,-10584.944971,1110.308913,153.219100
993.873213,-10288.862594,370.102971,153.219100
993.873529,-10066.800811,148.041188,0.000000
993.873844,-10214.842000,-296.082377,-229.828649
993.874160,-10140.821405,296.082377,383.047749
993.874476,-9252.574275,-740.205942,-1149.143247
993.874791,-9252.574275,-666.185348,-1072.533697
993.875107,-9844.739029,-666.185348,-689.485948
993.875422,-9622.677246,-444.123565,-459.657299
993.875738,-9844.739029,-370.102971,306.438199
993.876054,-9696.697840,-148.041188,0.000000
993.876369,-9770.718434,0.000000,383.047749
993.876685,-10436.903782,74.020594,842.705048
993.877001,-9696.697840,666.185348,766.095498
993.877316,-9622.677246,222.061783,1225.752797
993.877632,-9770.718434,444.123565,1225.752797
993.877948,-9622.677246,-296.082377,919.314598
993.878263,-8956.491898,0.000000,842.705048
993.878579,-8290.306550,-518.144159,229.828649
993.878894,-8956.491898,-1036.288319,612.876398
993.879210,-8364.327145,-1036.288319,-229.828649
993.879526,-7920.203579,-888.247130,0.000000
993.879841,-7698.141797,-1036.288319,-383.047749
993.880157,-8142.265362,-1332.370696,1685.410096
993.880473,-8068.244768,-592.164754,0.000000
993.880788,-8660.409521,0.000000,229.828649
993.881104,-8290.306550,-740.205942,0.000000
993.881420,-8660.409521,592.164754,0.000000
993.881735,-9178.553681,444.123565,306.438199
993.882051,-9474.636058,888.247130,1149.143247
993.882367,-9104.533087,518.144159,1072.533697
993.882682,-9178.553681,740.205942,842.705048
993.882998,-9474.636058,1406.391290,1149.143247
993.883313,-9400.615463,74.020594,1225.752797
993.883629,-9252.574275,518.144159,919.314598
993.883945,-9104.533087,-296.082377,536.266849
993.884260,-9474.636058,-296.082377,383.047749
993.884576,-8956.491898,-370.102971,1225.752797
993.884892,-9326.594869,-814.226536,76.609550
993.885207,-8882.471304,-296.082377,0.000000
993.885523,-9696.697840,-444.123565,-383.047749
993.885839,-9992.780217,0.000000,0.000000
993.886154,-9548.656652,592.164754,689.485948
993.886470,-10066.800811,222.061783,689.485948
993.886786,-9918.759623,370.102971,459.657299
993.887101,-10732.986159,888.247130,919.314598
993.887417,-10881.027347,444.123565,383.047749
993.887732,-10362.883188,1110.308913,1225.752797
993.888048,-10436.903782,814.226536,766.095498
993.888364,-10362.883188,814.226536,919.314598
993.888679,-10510.924376,888.247130,919.314598
993.888995,-11325.150913,370.102971,1225.752797
993.889311,-9770.718434,222.061783,612.876398
993.889626,-9918.759623,296.082377,229.828649
993.889942,-9770.718434,74.020594,76.609550
993.890258,-9548.656652,0.000000,-689.485948
993.890573,-9030.512492,-518.144159,-229.828649
993.890889,-9770.718434,0.000000,0.000000
993.891205,-9622.677246,148.041188,229.828649
993.891520,-9548.656652,370.102971,0.000000
993.891836,-9474.636058,148.041188,-1225.752797
993.892151,-9400.615463,370.102971,383.047749
993.892467,-9622.677246,444.123565,383.047749
993.892783,-9548.656652,296.082377,459.657299
993.893098,-9548.656652,0.000000,306.438199
993.893414,-8882.471304,-370.102971,-766.095498
993.893730,-9474.636058,-518.144159,153.219100
993.894045,-9474.636058,-666.185348,306.438199
993.894361,-9474.636058,-740.205942,153.219100
993.894677,-9400.615463,-1258.350101,766.095498
993.894992,-9178.553681,-1628.453072,0.000000
993.895308,-9326.594869,-1554.432478,0.000000
993.895624,-9252.574275,-1184.329507,0.000000
993.895939,-9474.636058,-1184.329507,0.000000
993.896255,-9474.636058,-1332.370696,-842.705048
993.896570,-9474.636058,-814.226536,306.438199
993.896886,-9474.636058,-962.267725,76.609550
993.897202,-9252.574275,-888.247130,0.000000
993.897517,-9326.594869,-592.164754,383.047749
993.897833,-8660.409521,-444.123565,153.219100
993.898149,-9104.533087,-444.123565,0.000000
993.898464,-9104.533087,-592.164754,0.000000
993.898780,-9030.512492,-592.164754,0.000000
993.899096,-8882.471304,-888.247130,-306.438199
993.899411,-9178.553681,-296.082377,536.266849
993.899727,-9104.533087,-296.082377,459.657299
993.900043,-9030.512492,-592.164754,0.000000
993.900358,-9030.512492,-370.102971,-536.266849
993.900674,-9326.594869,0.000000,-1685.410096
993.900989,-9474.636058,814.226536,766.095498
993.901305,-9548.656652,1480.411884,1762.019645
993.901621,-9696.697840,1258.350101,1225.752797
993.901936,-9844.739029,1110.308913,919.314598
993.902252,-11103.089130,1110.308913,536.266849
993.902568,-9770.718434,592.164754,306.438199
993.902883,-9918.759623,666.185348,383.047749
993.903199,-9770.718434,370.102971,459.657299
993.903515,-9178.553681,0.000000,-306.438199
993.903830,-9474.636058,518.144159,306.438199
993.904146,-9252.574275,518.144159,153.219100
993.904461,-9474.636058,370.102971,153.219100
993.904777,-9474.636058,148.041188,0.000000
993.905093,-9326.594869,74.020594,76.609550
993.905408,-9770.718434,296.082377,76.609550
993.905724,-9844.739029,296.082377,153.219100
993.906040,-10140.821405,814.226536,536.266849
993.906355,-10214.842000,1184.329507,919.314598
993.906671,-10362.883188,1332.370696,1302.362347
993.906987,-10362.883188,1554.432478,1608.800546
993.907302,-10288.862594,1332.370696,1378.971896
993.907618,-10140.821405,888.247130,536.266849
993.907934,-9104.533087,1110.308913,2374.896044
993.908249,-9770.718434,296.082377,0.000000
993.908565,-9548.656652,0.000000,0.000000
993.908880,-9326.594869,-148.041188,0.000000
993.909196,-9104.533087,-222.061783,76.609550
993.909512,-8734.430116,-1258.350101,459.657299
993.909827,-8882.471304,-740.205942,-306.438199
993.910143,-9030.512492,-666.185348,153.219100
993.910459,-9104.533087,-666.185348,76.609550
993.910774,-8882.471304,-962.267725,-306.438199
993.911090,-8660.409521,-962.267725,-306.438199
993.911406,-8956.491898,-1554.432478,0.000000
993.911721,-8586.388927,-1924.535449,76.609550
993.912037,-8512.368333,-1628.453072,-153.219100
993.912353,-8290.306550,-962.267725,-229.828649
993.912668,-8734.430116,-2368.659014,0.000000
993.912984,-8290.306550,-2886.803174,-766.095498
993.913299,-8216.285956,-2886.803174,-1149.143247
993.913615,-8290.306550,-2664.741391,-1072.533697
993.913931,-8364.327145,-3108.864956,-1608.800546
993.914246,-8882.471304,-3330.926739,-1532.190996
993.914562,-8734.430116,-2664.741391,-1149.143247
993.914878,-9400.615463,-2442.679609,-689.485948
993.915193,-9696.697840,-1628.453072,-153.219100
993.915509,-9696.697840,-1110.308913,459.657299
993.915825,-9844.739029,-518.144159,153.219100
993.916140,-9696.697840,-296.082377,-306.438199
993.916456,-10436.903782,-592.164754,-229.828649
993.916772,-9770.718434,-444.123565,-766.095498
993.917087,-9548.656652,-1036.288319,-689.485948
993.917403,-9770.718434,-1184.329507,-919.314598
993.917718,-9622.677246,-1776.494261,-1532.190996
993.918034,-9770.718434,-2072.576638,-2298.286494
993.918350,-8364.327145,-888.247130,-1302.362347
993.918665,-9844.739029,-148.041188,-383.047749
993.918981,-10140.821405,74.020594,76.609550
993.919297,-10807.006753,592.164754,153.219100
993.919612,-10732.986159,444.123565,-383.047749
993.919928,-10955.047942,444.123565,-306.438199
993.920244,-11251.130318,592.164754,0.000000
993.920559,-11251.130318,592.164754,229.828649
993.920875,-10955.047942,444.123565,0.000000
993.921191,-9252.574275,444.123565,-536.266849
993.921506,-10436.903782,740.205942,0.000000
993.921822,-10510.924376,814.226536,0.000000
993.922137,-10140.821405,592.164754,76.609550
993.922453,-9918.759623,74.020594,229.828649
993.922769,-9622.677246,222.061783,153.219100
993.923084,-10214.842000,592.164754,229.828649
993.923400,-9992.780217,592.164754,689.485948
993.923716,-9622.677246,296.082377,76.609550
993.924031,-9770.718434,148.041188,306.438199
993.924347,-9770.718434,148.041188,612.876398
993.924663,-9622.677246,0.000000,153.219100
993.924978,-9400.615463,0.000000,0.000000
993.925294,-9030.512492,-444.123565,0.000000
993.925610,-9030.512492,-592.164754,76.609550
993.925925,-8734.430116,-666.185348,0.000000
993.926241,-8586.388927,-740.205942,0.000000
993.926556,-8586.388927,-888.247130,76.609550
993.926872,-8808.450710,-814.226536,229.828649
993.927188,-8808.450710,-296.082377,689.485948
993.927503,-8734.430116,0.000000,612.876398
993.927819,-8364.327145,-148.041188,383.047749
993.928135,-8586.388927,-370.102971,919.314598
993.928450,-8660.409521,-592.164754,536.266849
993.928766,-8512.368333,-518.144159,76.609550
993.929082,-8290.306550,-962.267725,306.438199
993.929397,-8216.285956,-1184.329507,0.000000
993.929713,-8068.244768,-1480.411884,-306.438199
993.930028,-8956.491898,-1554.432478,459.657299
993.930344,-7772.162391,-1924.535449,-1072.533697
993.930660,-7994.224174,-1998.556043,-306.438199
993.930975,-8290.306550,-1850.514855,-766.095498
993.931291,-8512.368333,-1480.411884,-459.657299
993.931607,-8956.491898,-1184.329507,-536.266849
993.931922,-9104.533087,-962.267725,-612.876398
993.932238,-9474.636058,-888.247130,-229.828649
993.932554,-9548.656652,-518.144159,0.000000
993.932869,-9474.636058,-444.123565,0.000000
993.933185,-9770.718434,-296.082377,-153.219100
993.933501,-9770.718434,-296.082377,153.219100
993.933816,-10140.821405,-518.144159,-306.438199
993.934132,-9770.718434,-740.205942,-766.095498
993.934447,-9548.656652,-1036.288319,-306.438199
993.934763,-9918.759623,-666.185348,-459.657299
993.935079,-9992.780217,-740.205942,-536.266849
993.935394,-9696.697840,-814.226536,-612.876398
993.935710,-9548.656652,-740.205942,-1225.752797
993.936026,-9548.656652,-666.185348,-1378.971896
993.936341,-10214.842000,-740.205942,-1302.362347
993.936657,-10066.800811,-888.247130,-1302.362347
993.936973,-10214.842000,-1036.288319,-1149.143247
993.937288,-10362.883188,-518.144159,-229.828649
993.937604,-10584.944971,-814.226536,-536.266849
993.937920,-10288.862594,-148.041188,-306.438199
993.938235,-10732.986159,0.000000,-383.047749
993.938551,-10584.944971,-296.082377,-306.438199
993.938866,-10881.027347,296.082377,612.876398
993.939182,-10807.006753,-814.226536,0.000000
993.939498,-10436.903782,0.000000,-229.828649
993.939813,-10288.862594,-370.102971,0.000000
993.940129,-10658.965565,-814.226536,-229.828649
993.940445,-10288.862594,-370.102971,459.657299
993.940760,-10214.842000,-666.185348,-153.219100
993.941076,-10066.800811,-666.185348,0.000000
993.941392,-9622.677246,-740.205942,0.000000
993.941707,-9992.780217,-666.185348,-536.266849
993.942023,-9474.636058,-370.102971,0.000000
993.942339,-10066.800811,-666.185348,-306.438199
993.942654,-8956.491898,-666.185348,-306.438199
993.942970,-9622.677246,-666.185348,-459.657299
993.943285,-8734.430116,-1036.288319,0.000000
993.943601,-9474.636058,-1036.288319,-306.438199
993.943917,-8956.491898,-518.144159,153.219100
993.944232,-9252.574275,-1110.308913,153.219100
993.944548,-9030.512492,-814.226536,76.609550
993.944864,-8438.347739,-888.247130,153.219100
993.945179,-9326.594869,-592.164754,153.219100
993.945495,-8660.409521,-518.144159,383.047749
993.945811,-8956.491898,-1036.288319,383.047749
993.946126,-8734.430116,-962.267725,919.314598
993.946442,-8808.450710,-740.205942,536.266849
993.946758,-8956.491898,-666.185348,612.876398
993.947073,-8512.368333,-518.144159,229.828649
993.947389,-8364.327145,-592.164754,229.828649
993.947704,-8364.327145,-592.164754,383.047749
993.948020,-7994.224174,-1110.308913,0.000000
993.948336,-8290.306550,-518.144159,0.000000
993.948651,-8364.327145,-592.164754,-229.828649
993.948967,-8512.368333,-814.226536,-766.095498
993.949283,-8142.265362,-518.144159,-612.876398
993.949598,-8660.409521,-592.164754,-536.266849
993.949914,-8586.388927,-222.061783,-306.438199
993.950230,-8956.491898,-962.267725,-689.485948
993.950545,-7920.203579,-222.061783,-383.047749
993.950861,-9030.512492,0.000000,0.000000
993.951177,-9474.636058,-370.102971,0.000000
993.951492,-9474.636058,-296.082377,-153.219100
993.951808,-9474.636058,0.000000,-459.657299
993.952123,-9844.739029,222.061783,153.219100
993.952439,-9992.780217,222.061783,306.438199
993.952755,-9918.759623,-444.123565,0.000000
993.953070,-9770.718434,-148.041188,-383.047749
993.953386,-9696.697840,0.000000,-229.828649
993.953702,-9992.780217,444.123565,0.000000
993.954017,-10362.883188,222.061783,229.828649
993.954333,-9844.739029,-444.123565,-459.657299
993.954649,-9696.697840,-370.102971,-842.705048
993.954964,-9992.780217,222.061783,-1762.019645
993.955280,-10066.800811,-444.123565,-919.314598
993.955595,-9844.739029,-666.185348,-1225.752797
993.955911,-9770.718434,-592.164754,-1532.190996
993.956227,-10066.800811,74.020594,-919.314598
993.956542,-11769.274478,814.226536,0.000000
993.956858,-10732.986159,0.000000,306.438199
993.957174,-10362.883188,0.000000,306.438199
993.957489,-10955.047942,222.061783,383.047749
993.957805,-11177.109724,296.082377,383.047749
993.958121,-10510.924376,814.226536,612.876398
993.958436,-10066.800811,0.000000,0.000000
993.958752,-9918.759623,-592.164754,-766.095498
993.959068,-10140.821405,-1480.411884,-536.266849
993.959383,-9918.759623,-1776.494261,-612.876398
993.959699,-9326.594869,-1776.494261,-1149.143247
993.960014,-9104.533087,-1702.473667,-1225.752797
993.960330,-9400.615463,-1184.329507,-536.266849
993.960646,-9548.656652,-1258.350101,229.828649
993.960961,-9178.553681,-1628.453072,153.219100
993.961277,-9548.656652,-814.226536,459.657299
993.961593,-10066.800811,-518.144159,995.924147
993.961908,-10140.821405,-296.082377,1072.533697
993.962224,-9622.677246,-222.061783,459.657299
993.962540,-9178.553681,-740.205942,459.657299
993.962855,-9252.574275,-962.267725,76.609550
993.963171,-9252.574275,-1110.308913,0.000000
993.963487,-8734.430116,-1184.329507,-612.876398
993.963802,-7402.059420,-1480.411884,-536.266849
993.964118,-8586.388927,-1332.370696,-612.876398
993.964433,-8956.491898,-1110.308913,-459.657299
993.964749,-8808.450710,-1036.288319,0.000000
993.965065,-8882.471304,-962.267725,306.438199
993.965380,-8882.471304,-1776.494261,-766.095498
993.965696,-8808.450710,-1036.288319,-1072.533697
993.966012,-8734.430116,-370.102971,-995.924147
993.966327,-9178.553681,0.000000,-153.219100
993.966643,-9104.533087,-518.144159,76.609550
993.966959,-9400.615463,-814.226536,0.000000
993.967274,-9474.636058,-518.144159,-153.219100
993.967590,-9030.512492,-370.102971,0.000000
993.967906,-9474.636058,74.020594,459.657299
993.968221,-8956.491898,-592.164754,1378.971896
993.968537,-9622.677246,-592.164754,0.000000
993.968853,-8882.471304,-148.041188,-229.828649
993.969169,-9252.574275,-444.123565,0.000000
993.969484,-9400.615463,-592.164754,0.000000
993.969800,-9326.594869,-370.102971,-459.657299
993.970116,-8586.388927,-518.144159,-1302.362347
993.970431,-8882.471304,-296.082377,-1072.533697
993.970747,-9252.574275,-888.247130,-766.095498
993.971063,-9400.615463,-1036.288319,-1685.410096
993.971378,-8734.430116,-1036.288319,-1455.581446
993.971694,-9474.636058,-666.185348,-536.266849
993.972010,-9474.636058,-592.164754,-229.828649
993.972325,-9918.759623,-148.041188,153.219100
993.972641,-9474.636058,0.000000,612.876398
993.972957,-9770.718434,74.020594,229.828649
993.973272,-10807.006753,74.020594,842.705048
993.973588,-10584.944971,74.020594,536.266849
993.973904,-10066.800811,222.061783,383.047749
993.974220,-10140.821405,148.041188,536.266849
993.974535,-10066.800811,0.000000,229.828649
993.974851,-9992.780217,-814.226536,153.219100
993.975167,-9844.739029,-814.226536,-306.438199
993.975482,-9252.574275,-740.205942,-1685.410096
993.975798,-9696.697840,-962.267725,-919.314598
993.976114,-9622.677246,-592.164754,-842.705048
993.976429,-9326.594869,-1332.370696,-919.314598
993.976745,-9252.574275,-592.164754,-1378.971896
993.977061,-9992.780217,-1406.391290,0.000000
993.977376,-10140.821405,-370.102971,-306.438199
993.977692,-9622.677246,-518.144159,-459.657299
993.978008,-9770.718434,0.000000,0.000000
993.978324,-9844.739029,-518.144159,0.000000
993.978639,-10510.924376,-592.164754,689.485948
993.978955,-10066.800811,-222.061783,612.876398
993.979271,-9844.739029,-222.061783,306.438199
993.979586,-9622.677246,-666.185348,76.609550
993.979902,-9918.759623,-296.082377,-383.047749
993.980218,-9474.636058,-666.185348,0.000000
993.980533,-9474.636058,-444.123565,-306.438199
993.980849,-9326.594869,-1036.288319,0.000000
993.981165,-9622.677246,-1036.288319,-383.047749
993.981480,-9696.697840,148.041188,-459.657299
993.981796,-9030.512492,-740.205942,-229.828649
993.982112,-9178.553681,0.000000,0.000000
993.982427,-9326.594869,-444.123565,-383.047749
993.982743,-9622.677246,-148.041188,0.000000
993.983059,-8660.409521,0.000000,-612.876398
993.983375,-9178.553681,-444.123565,-229.828649
993.983690,-9030.512492,-296.082377,-306.438199
993.984006,-9030.512492,0.000000,-306.438199
993.984322,-8956.491898,-296.082377,-995.924147
993.984637,-8734.430116,-518.144159,-459.657299
993.984953,-9326.594869,-814.226536,-306.438199
993.985269,-8956.491898,-1110.308913,-229.828649
993.985584,-9030.512492,-518.144159,0.000000
993.985900,-7772.162391,-1258.350101,0.000000
993.986216,-8956.491898,-296.082377,-229.828649
993.986531,-9474.636058,-444.123565,153.219100
993.986847,-9474.636058,-444.123565,153.219100
993.987163,-9400.615463,-148.041188,229.828649
993.987479,-9696.697840,-296.082377,689.485948
993.987794,-9400.615463,-592.164754,153.219100
993.988110,-9178.553681,74.020594,0.000000
993.988426,-9178.553681,-740.205942,-383.047749
993.988741,-9622.677246,-370.102971,1608.800546
993.989057,-9178.553681,-1110.308913,-689.485948
993.989373,-8956.491898,-1406.391290,-459.657299
993.989688,-9030.512492,-1184.329507,-689.485948
993.990004,-9474.636058,-1258.350101,-459.657299
993.990320,-11177.109724,-148.041188,0.000000
993.990635,-9474.636058,-962.267725,-689.485948
993.990951,-9474.636058,-814.226536,-306.438199
993.991267,-9548.656652,-740.205942,0.000000
993.991582,-9844.739029,-666.185348,-229.828649
993.991898,-9474.636058,-518.144159,0.000000
993.992214,-9770.718434,-296.082377,153.219100
993.992530,-9992.780217,-518.144159,0.000000
993.992845,-10214.842000,-518.144159,153.219100
993.993161,-10214.842000,-148.041188,-995.924147
993.993477,-9918.759623,-666.185348,0.000000
993.993792,-9622.677246,-1036.288319,-689.485948
993.994108,-9474.636058,-814.226536,-153.219100
993.994424,-9622.677246,-444.123565,-612.876398
993.994739,-8808.450710,-1554.432478,0.000000
993.995055,-9696.697840,-444.123565,-383.047749
993.995371,-9770.718434,-222.061783,-689.485948
993.995686,-9844.739029,-962.267725,-536.266849
993.996002,-10066.800811,-370.102971,-612.876398
993.996318,-9844.739029,-1332.370696,0.000000
993.996634,-9844.739029,-1110.308913,-306.438199
993.996949,-9844.739029,-962.267725,-229.828649
993.997265,-9770.718434,-814.226536,76.609550
993.997581,-9400.615463,-148.041188,-919.314598
993.997896,-9548.656652,-592.164754,0.000000
993.998212,-9548.656652,-740.205942,0.000000
993.998528,-9844.739029,-740.205942,-383.047749
993.998843,-9696.697840,-888.247130,-229.828649
993.999159,-9696.697840,-666.185348,383.047749
993.999475,-9696.697840,-814.226536,76.609550
993.999790,-9622.677246,-888.247130,0.000000
994.000106,-9474.636058,-962.267725,76.609550
994.000422,-9400.615463,-740.205942,-612.876398
994.000737,-9400.615463,-740.205942,0.000000
994.001053,-9326.594869,-1110.308913,0.000000
994.001369,-9030.512492,-888.247130,-689.485948
994.001685,-8808.450710,-1406.391290,-689.485948
994.002000,-7772.162391,-1998.556043,383.047749
994.002316,-8586.388927,-1924.535449,-1072.533697
994.002632,-8438.347739,-2146.597232,-1532.190996
994.002947,-8290.306550,-2072.576638,-1608.800546
994.003263,-8734.430116,-2294.638420,-1072.533697
994.003579,-8512.368333,-2368.659014,-536.266849
994.003894,-8808.450710,-2146.597232,-689.485948
994.004210,-9104.533087,-1776.494261,-383.047749
994.004526,-9326.594869,-1406.391290,229.828649
994.004841,-9400.615463,-1258.350101,766.095498
994.005157,-9770.718434,-962.267725,536.266849
994.005473,-9474.636058,-1184.329507,536.266849
994.005789,-9474.636058,-370.102971,383.047749
994.006104,-9622.677246,-592.164754,689.485948
994.006420,-9844.739029,-222.061783,306.438199
994.006736,-9104.533087,-1332.370696,-229.828649
994.007051,-8808.450710,-1628.453072,-919.314598
994.007367,-8882.471304,-1554.432478,-995.924147
994.007683,-8956.491898,-1924.535449,-612.876398
994.007998,-8734.430116,-1702.473667,-842.705048
994.008314,-8734.430116,-1480.411884,-1302.362347
994.008630,-9622.677246,-740.205942,-919.314598
994.008945,-9548.656652,-370.102971,-153.219100
994.009261,-9918.759623,-74.020594,766.095498
994.009577,-10362.883188,148.041188,0.000000
994.009892,-10584.944971,814.226536,0.000000
994.010208,-10807.006753,1258.350101,229.828649
994.010524,-10732.986159,1332.370696,229.828649
994.010840,-10584.944971,1776.494261,2528.115143
994.011155,-10584.944971,1258.350101,306.438199
994.011471,-10807.006753,1184.329507,536.266849
994.011787,-10732.986159,1110.308913,1149.143247
994.012102,-10510.924376,1480.411884,766.095498
994.012418,-11103.089130,1406.391290,536.266849
994.012734,-10658.965565,2072.576638,995.924147
994.013049,-10732.986159,2294.638420,1378.971896
994.013365,-10362.883188,2072.576638,1149.143247
994.013681,-9474.636058,2220.617826,612.876398
994.013996,-10066.800811,1332.370696,689.485948
994.014312,-9474.636058,814.226536,229.828649
994.014628,-9252.574275,444.123565,459.657299
994.014944,-8734.430116,0.000000,0.000000
994.015259,-8808.450710,-666.185348,1072.533697
994.015575,-8660.409521,-296.082377,-306.438199
994.015891,-9030.512492,-370.102971,306.438199
994.016206,-8882.471304,0.000000,919.314598
994.016522,-9252.574275,148.041188,1149.143247
994.016838,-10066.800811,444.123565,1685.410096
994.017153,-9548.656652,888.247130,1991.848295
994.017469,-9770.718434,814.226536,2451.505594
994.017785,-9696.697840,740.205942,2451.505594
994.018100,-9918.759623,1480.411884,1302.362347
994.018416,-9252.574275,592.164754,2221.676944
994.018732,-9030.512492,222.061783,1455.581446
994.019047,-8734.430116,-592.164754,919.314598
994.019363,-8068.244768,-1110.308913,76.609550
994.019679,-7698.141797,-1184.329507,1149.143247
994.019995,-7402.059420,-1850.514855,-842.705048
994.020310,-7624.121203,-1998.556043,-995.924147
994.020626,-7402.059420,-2146.597232,-1149.143247
994.020942,-7402.059420,-1998.556043,-1378.971896
994.021257,-7920.203579,-1776.494261,-1378.971896
994.021573,-8512.368333,-1258.350101,-536.266849
994.021889,-8882.471304,-888.247130,-383.047749
994.022204,-9474.636058,-444.123565,76.609550
994.022520,-8808.450710,-1332.370696,-153.219100
994.022836,-9474.636058,-444.123565,766.095498
994.023151,-9696.697840,-518.144159,612.876398
994.023467,-9622.677246,-888.247130,612.876398
994.023783,-9844.739029,-962.267725,536.266849
994.024099,-9030.512492,-2220.617826,536.266849
994.024414,-9548.656652,-1480.411884,153.219100
994.024730,-9474.636058,-1258.350101,-229.828649
994.025046,-9696.697840,-1332.370696,0.000000
994.025361,-9696.697840,-1036.288319,0.000000
994.025677,-9770.718434,-740.205942,-383.047749
994.025993,-10066.800811,-222.061783,-383.047749
994.026308,-10510.924376,0.000000,-459.657299
994.026624,-10658.965565,0.000000,0.000000
994.026940,-10658.965565,1110.308913,-536.266849
994.027255,-10881.027347,592.164754,0.000000
994.027571,-10955.047942,666.185348,0.000000
994.027887,-10658.965565,666.185348,153.219100
994.028202,-10732.986159,814.226536,0.000000
994.028518,-10214.842000,370.102971,612.876398
994.028834,-10658.965565,666.185348,76.609550
994.029150,-10584.944971,444.123565,0.000000
994.029465,-10658.965565,814.226536,76.609550
994.029781,-10807.006753,962.267725,0.000000
994.030097,-10881.027347,1258.350101,536.266849
994.030412,-10658.965565,962.267725,459.657299
994.030728,-10732.986159,1258.350101,612.876398
994.031044,-10658.965565,1554.432478,459.657299
994.031359,-10584.944971,1332.370696,-536.266849
994.031675,-10510.924376,1480.411884,536.266849
994.031991,-10066.800811,1184.329507,459.657299
994.032306,-9844.739029,1258.350101,459.657299
994.032622,-9770.718434,1110.308913,536.266849
994.032938,-8586.388927,888.247130,229.828649
994.033254,-8956.491898,444.123565,536.266849
994.033569,-8956.491898,0.000000,306.438199
994.033885,-8808.450710,74.020594,766.095498
994.034201,-8734.430116,0.000000,-306.438199
994.034516,-9178.553681,222.061783,689.485948
994.034832,-8734.430116,296.082377,842.705048
994.035148,-8438.347739,148.041188,919.314598
994.035463,-8660.409521,148.041188,995.924147
994.035779,-8734.430116,-222.061783,1762.019645
994.036095,-8438.347739,-222.061783,1072.533697
994.036410,-8586.388927,296.082377,1532.190996
994.036726,-8290.306550,0.000000,1455.581446
994.037042,-8586.388927,0.000000,1302.362347
994.037357,-8068.244768,0.000000,1072.533697
994.037673,-8438.347739,-592.164754,919.314598
994.037989,-8364.327145,-888.247130,306.438199
994.038305,-7624.121203,-1110.308913,383.047749
994.038620,-7920.203579,-888.247130,153.219100
994.038936,-7698.141797,-666.185348,-306.438199
994.039252,-8290.306550,-1036.288319,459.657299
994.039567,-7846.182985,-592.164754,459.657299
994.039883,-8882.471304,-888.247130,153.219100
994.040199,-8438.347739,444.123565,766.095498
994.040514,-9326.594869,-666.185348,0.000000
994.040830,-8216.285956,-296.082377,0.000000
994.041146,-9104.533087,-592.164754,153.219100
994.041461,-9178.553681,-296.082377,0.000000
994.041777,-9844.739029,-1036.288319,612.876398
994.042093,-9548.656652,-740.205942,306.438199
994.042409,-9474.636058,-444.123565,229.828649
994.042724,-10288.862594,-148.041188,536.266849
994.043040,-9622.677246,962.267725,-76.609550
994.043356,-10436.903782,148.041188,766.095498
994.043671,-10214.842000,-148.041188,153.219100
994.043987,-10288.862594,0.000000,0.000000
994.044303,-11103.089130,148.041188,306.438199
994.044618,-12139.377449,592.164754,-306.438199
994.044934,-10214.842000,370.102971,-153.219100
994.045250,-10955.047942,592.164754,76.609550
994.045565,-10807.006753,370.102971,-153.219100
994.045881,-10807.006753,814.226536,-383.047749
994.046197,-10362.883188,962.267725,0.000000
994.046512,-10955.047942,0.000000,-153.219100
994.046828,-10955.047942,444.123565,-689.485948
994.047144,-10807.006753,296.082377,-459.657299
994.047460,-10955.047942,592.164754,76.609550
994.047775,-10658.965565,0.000000,0.000000
994.048091,-10732.986159,370.102971,76.609550
994.048407,-10436.903782,740.205942,0.000000
994.048722,-10807.006753,518.144159,459.657299
994.049038,-10362.883188,222.061783,842.705048
994.049354,-10362.883188,0.000000,153.219100
994.049669,-10066.800811,0.000000,0.000000
994.049985,-10140.821405,444.123565,383.047749
994.050301,-10066.800811,0.000000,1072.533697
994.050616,-9770.718434,-1184.329507,1302.362347
994.050932,-9326.594869,-888.247130,0.000000
994.051248,-8882.471304,-1036.288319,-536.266849
994.051564,-9252.574275,-444.123565,0.000000
994.051879,-8882.471304,-962.267725,-766.095498
994.052195,-8586.388927,-1036.288319,0.000000
994.052511,-8512.368333,-740.205942,153.219100
994.052826,-9030.512492,-888.247130,459.657299
994.053142,-8734.430116,-1332.370696,766.095498
994.053458,-7994.224174,-962.267725,1685.410096
994.053773,-8142.265362,-592.164754,0.000000
994.054089,-8216.285956,-444.123565,306.438199
994.054405,-8586.388927,-740.205942,689.485948
994.054720,-8290.306550,-962.267725,919.314598
994.055036,-8512.368333,-370.102971,153.219100
994.055352,-8808.450710,-1110.308913,919.314598
994.055667,-8956.491898,-444.123565,1302.362347
994.055983,-8364.327145,-370.102971,1225.752797
994.056299,-8068.244768,-518.144159,1225.752797
994.056615,-8438.347739,-296.082377,536.266849
994.056930,-8586.388927,-518.144159,842.705048
994.057246,-8734.430116,-740.205942,842.705048
994.057562,-8290.306550,-814.226536,229.828649
994.057877,-8068.244768,-1480.411884,-1378.971896
994.058193,-8660.409521,-740.205942,0.000000
994.058509,-8586.388927,-1036.288319,-153.219100
994.058824,-8290.306550,-666.185348,-229.828649
994.059140,-8734.430116,-666.185348,-383.047749
994.059456,-9696.697840,0.000000,612.876398
994.059771,-9474.636058,0.000000,459.657299
994.060087,-9474.636058,148.041188,766.095498
994.060403,-9770.718434,148.041188,689.485948
994.060719,-10510.924376,222.061783,2068.457845
994.061034,-10584.944971,148.041188,1302.362347
994.061350,-10362.883188,296.082377,1072.533697
994.061666,-10140.821405,74.020594,689.485948
994.061981,-10214.842000,0.000000,459.657299
994.062297,-9770.718434,0.000000,-2374.896044
994.062613,-9992.780217,592.164754,153.219100
994.062928,-10214.842000,148.041188,229.828649
994.063244,-10288.862594,-148.041188,0.000000
994.063560,-10436.903782,-222.061783,0.000000
994.063875,-10658.965565,592.164754,459.657299
994.064191,-9844.739029,518.144159,-306.438199
994.064507,-10362.883188,370.102971,76.609550
994.064822,-10362.883188,0.000000,-153.219100
994.065138,-9918.759623,296.082377,1072.533697
994.065454,-10066.800811,370.102971,-383.047749
994.065770,-10436.903782,222.061783,76.609550
994.066085,-10584.944971,222.061783,536.266849
994.066401,-10362.883188,-296.082377,-153.219100
994.066717,-10732.986159,444.123565,612.876398
994.067032,-10436.903782,148.041188,612.876398
994.067348,-10732.986159,148.041188,842.705048
994.067664,-10288.862594,518.144159,536.266849
994.067979,-10362.883188,666.185348,153.219100
994.068295,-10436.903782,518.144159,1149.143247
994.068611,-10288.862594,296.082377,689.485948
994.068926,-9770.718434,148.041188,689.485948
994.069242,-9400.615463,0.000000,153.219100
994.069557,-8734.430116,-148.041188,-383.047749
994.069873,-9622.677246,-444.123565,229.828649
994.070189,-9104.533087,-740.205942,-153.219100
994.070504,-8364.327145,-962.267725,-536.266849
994.070820,-8808.450710,-888.247130,-459.657299
994.071136,-9030.512492,-740.205942,1072.533697
994.071451,-8734.430116,-592.164754,153.219100
994.071767,-9030.512492,-814.226536,0.000000
994.072082,-8438.347739,-444.123565,229.828649
994.072398,-9178.553681,-444.123565,383.047749
994.072714,-9252.574275,74.020594,536.266849
994.073029,-9030.512492,0.000000,689.485948
994.073345,-8808.450710,0.000000,842.705048
994.073661,-9178.553681,-370.102971,1149.143247
994.073976,-8364.327145,-592.164754,1991.848295
994.074292,-8438.347739,-370.102971,919.314598
994.074607,-8660.409521,0.000000,766.095498
994.074923,-8438.347739,-518.144159,612.876398
994.075239,-8808.450710,148.041188,383.047749
994.075554,-6883.915261,518.144159,76.609550
994.075870,-8808.450710,-222.061783,153.219100
994.076186,-8290.306550,-740.205942,76.609550
994.076501,-8808.450710,370.102971,-306.438199
994.076817,-8512.368333,222.061783,0.000000
994.077132,-9326.594869,740.205942,689.485948
994.077448,-8882.471304,370.102971,689.485948
994.077764,-9548.656652,444.123565,383.047749
994.078079,-9548.656652,1110.308913,536.266849
994.078395,-9696.697840,74.020594,536.266849
994.078711,-9696.697840,1184.329507,1225.752797
994.079026,-9770.718434,592.164754,919.314598
994.079342,-10214.842000,740.205942,459.657299
994.079657,-9474.636058,888.247130,766.095498
994.079973,-9992.780217,370.102971,-306.438199
994.080289,-9770.718434,296.082377,612.876398
994.080604,-10288.862594,222.061783,0.000000
994.080920,-10214.842000,74.020594,383.047749
994.081236,-10066.800811,518.144159,-153.219100
994.081551,-10362.883188,148.041188,766.095498
994.081867,-10066.800811,518.144159,383.047749
994.082183,-10510.924376,962.267725,383.047749
994.082498,-10436.903782,518.144159,229.828649
994.082814,-10436.903782,592.164754,766.095498
994.083129,-10881.027347,814.226536,536.266849
994.083445,-10436.903782,814.226536,766.095498
994.083761,-10214.842000,888.247130,612.876398
994.084076,-10510.924376,444.123565,383.047749
994.084392,-10436.903782,666.185348,536.266849
994.084708,-9622.677246,-148.041188,0.000000
994.085023,-9622.677246,-444.123565,0.000000
994.085339,-9474.636058,-444.123565,-306.438199
994.085654,-9400.615463,-444.123565,-1762.019645
994.085970,-9252.574275,-666.185348,0.000000
994.086286,-9400.615463,-592.164754,-153.219100
994.086601,-9474.636058,-444.123565,153.219100
994.086917,-9548.656652,-370.102971,76.609550
994.087233,-9104.533087,-148.041188,459.657299
994.087548,-9474.636058,0.000000,459.657299
994.087864,-9696.697840,-296.082377,536.266849
994.088179,-9548.656652,0.000000,536.266849
994.088495,-9622.677246,-370.102971,612.876398
994.088811,-9178.553681,-444.123565,76.609550
994.089126,-9474.636058,-814.226536,229.828649
994.089442,-9104.533087,-1110.308913,0.000000
994.089758,-8660.409521,-1406.391290,229.828649
994.090073,-8882.471304,-1554.432478,0.000000
994.090389,-8734.430116,-1258.350101,-229.828649
994.090704,-8808.450710,-1554.432478,-229.828649
994.091020,-8956.491898,-1258.350101,0.000000
994.091336,-9178.553681,-1258.350101,-153.219100
994.091651,-9474.636058,-740.205942,612.876398
994.091967,-9474.636058,-518.144159,76.609550
994.092283,-9326.594869,-444.123565,306.438199
994.092598,-9252.574275,-148.041188,689.485948
994.092914,-9400.615463,-222.061783,536.266849
994.093229,-8956.491898,-222.061783,459.657299
994.093545,-9178.553681,0.000000,459.657299
994.093861,-9474.636058,0.000000,306.438199
994.094176,-9178.553681,0.000000,689.485948
994.094492,-9104.533087,-222.061783,-1302.362347
994.094808,-9252.574275,148.041188,0.000000
994.095123,-9252.574275,148.041188,153.219100
994.095439,-9474.636058,370.102971,612.876398
994.095755,-9474.636058,592.164754,536.266849
994.096070,-9770.718434,1036.288319,536.266849
994.096386,-9622.677246,888.247130,842.705048
994.096701,-9770.718434,888.247130,689.485948
994.097017,-9770.718434,888.247130,536.266849
994.097333,-9844.739029,814.226536,842.705048
994.097648,-9622.677246,1036.288319,536.266849
994.097964,-9622.677246,962.267725,459.657299
994.098280,-9622.677246,666.185348,383.047749
994.098595,-9474.636058,222.061783,0.000000
994.098911,-9474.636058,222.061783,0.000000
994.099226,-9622.677246,740.205942,0.000000
994.099542,-9918.759623,666.185348,766.095498
994.099858,-9844.739029,740.205942,612.876398
994.100173,-10362.883188,666.185348,995.924147
994.100489,-9918.759623,740.205942,0.000000
994.100805,-10214.842000,962.267725,536.266849
994.101120,-10214.842000,888.247130,919.314598
994.101436,-10140.821405,1110.308913,995.924147
994.101751,-10066.800811,592.164754,612.876398
994.102067,-9474.636058,592.164754,229.828649
994.102383,-9622.677246,74.020594,306.438199
994.102698,-9400.615463,0.000000,306.438199
994.103014,-9474.636058,-518.144159,153.219100
994.103330,-9326.594869,-370.102971,306.438199
994.103645,-8882.471304,-814.226536,0.000000
994.103961,-9104.533087,-666.185348,0.000000
994.104276,-8956.491898,-888.247130,383.047749
994.104592,-9178.553681,-888.247130,459.657299
994.104908,-8956.491898,-1184.329507,383.047749
994.105223,-9104.533087,-1258.350101,459.657299
994.105539,-9178.553681,-1628.453072,229.828649
994.105855,-8956.491898,-2220.617826,-229.828649
994.106170,-8364.327145,-2590.720797,0.000000
994.106486,-9030.512492,-2664.741391,-1072.533697
994.106801,-8216.285956,-3034.844362,-995.924147
994.107117,-8290.306550,-3256.906145,-1149.143247
994.107433,-8216.285956,-3330.926739,-1532.190996
994.107748,-8364.327145,-3701.029710,-689.485948
994.108064,-8882.471304,-2738.761985,-689.485948
994.108380,-9104.533087,-2368.659014,0.000000
994.108695,-9400.615463,-1850.514855,0.000000
994.109011,-9474.636058,-1258.350101,536.266849
994.109327,-9918.759623,-370.102971,689.485948
994.109642,-9622.677246,-740.205942,306.438199
994.109958,-9770.718434,-740.205942,0.000000
994.110273,-9400.615463,-1036.288319,-612.876398
994.110589,-9252.574275,-1332.370696,1072.533697
994.110905,-9474.636058,-1998.556043,-1225.752797
994.111220,-9178.553681,-1850.514855,-1532.190996
994.111536,-9178.553681,-1850.514855,-2145.067394
994.111852,-9326.594869,-1332.370696,-1608.800546
994.112167,-9252.574275,-1554.432478,-1838.629195
994.112483,-9844.739029,-666.185348,-1149.143247
994.112798,-10288.862594,74.020594,-459.657299
994.113114,-10658.965565,666.185348,76.609550
994.113430,-11325.150913,962.267725,536.266849
994.113745,-11103.089130,1110.308913,1149.143247
994.114061,-11473.192101,1924.535449,766.095498
994.114377,-11547.212695,1776.494261,919.314598
994.114692,-11251.130318,1554.432478,842.705048
994.115008,-10732.986159,1110.308913,-689.485948
994.115323,-10807.006753,1036.288319,0.000000
994.115639,-9918.759623,296.082377,-766.095498
994.115955,-9696.697840,-444.123565,-1225.752797
994.116270,-9474.636058,-222.061783,-842.705048
994.116586,-9622.677246,370.102971,-229.828649
994.116902,-9548.656652,-370.102971,-995.924147
994.117217,-9918.759623,0.000000,-612.876398
994.117533,-9918.759623,962.267725,0.000000
994.117848,-10214.842000,1258.350101,383.047749
994.118164,-9918.759623,2220.617826,2374.896044
994.118480,-10584.944971,1554.432478,1149.143247
994.118795,-10140.821405,1554.432478,1149.143247
994.119111,-9696.697840,814.226536,919.314598
994.119427,-9622.677246,222.061783,689.485948
994.119742,-8808.450710,-370.102971,153.219100
994.120058,-8882.471304,-740.205942,0.000000
994.120373,-8068.244768,-1184.329507,-229.828649
994.120689,-8142.265362,-1332.370696,-383.047749
994.121005,-7994.224174,-2294.638420,766.095498
994.121320,-7920.203579,-1554.432478,0.000000
994.121636,-8068.244768,-814.226536,0.000000
994.121952,-8512.368333,-888.247130,0.000000
994.122267,-8512.368333,-444.123565,536.266849
994.122583,-8142.265362,-296.082377,1149.143247
994.122899,-8586.388927,-296.082377,766.095498
994.123214,-8808.450710,-296.082377,919.314598
994.123530,-8808.450710,-518.144159,612.876398
994.123845,-8660.409521,-888.247130,306.438199
994.124161,-8142.265362,-1036.288319,76.609550
994.124477,-8290.306550,-1628.453072,0.000000
994.124792,-7994.224174,-1924.535449,-459.657299
994.125108,-8068.244768,-2294.638420,-689.485948
994.125424,-9252.574275,-1998.556043,-1225.752797
994.125739,-8216.285956,-2368.659014,-995.924147
994.126055,-8364.327145,-2368.659014,-842.705048
994.126370,-9030.512492,-1702.473667,-919.314598
994.126686,-9474.636058,-1480.411884,-459.657299
994.127002,-9622.677246,0.000000,-536.266849
994.127317,-9548.656652,-962.267725,0.000000
994.127633,-9918.759623,-592.164754,-383.047749
994.127949,-10214.842000,-222.061783,0.000000
994.128264,-10214.842000,0.000000,0.000000
994.128580,-10066.800811,0.000000,229.828649
994.128895,-10140.821405,-666.185348,0.000000
994.129211,-10288.862594,-962.267725,-383.047749
994.129527,-10066.800811,-1036.288319,-766.095498
994.129842,-9918.759623,-1406.391290,-1915.238745
994.130158,-9844.739029,-962.267725,-1302.362347
994.130474,-10214.842000,-962.267725,-1225.752797
994.130789,-10066.800811,-1258.350101,-1072.533697
994.131105,-10288.862594,-592.164754,-1302.362347
994.131420,-10214.842000,0.000000,-689.485948
994.131736,-10436.903782,-592.164754,-459.657299
994.132052,-10584.944971,222.061783,-536.266849
994.132367,-10881.027347,-222.061783,0.000000
994.132683,-10807.006753,518.144159,0.000000
994.132999,-10584.944971,370.102971,-306.438199
994.133314,-10807.006753,296.082377,-306.438199
994.133630,-10288.862594,518.144159,76.609550
994.133945,-10584.944971,148.041188,-306.438199
994.134261,-10881.027347,0.000000,-306.438199
994.134577,-10214.842000,222.061783,-306.438199
994.134892,-10362.883188,-518.144159,-459.657299
994.135208,-9548.656652,0.000000,-153.219100
994.135524,-10214.842000,-444.123565,0.000000
994.135839,-9770.718434,0.000000,-612.876398
994.136155,-9992.780217,-370.102971,0.000000
994.136471,-9400.615463,0.000000,-153.219100
994.136786,-9770.718434,-370.102971,-153.219100
994.137102,-9474.636058,-296.082377,-229.828649
994.137417,-9326.594869,-444.123565,0.000000
994.137733,-9178.553681,-962.267725,-306.438199
994.138049,-8808.450710,-888.247130,-306.438199
994.138364,-9104.533087,-1332.370696,-383.047749
994.138680,-8438.347739,-1406.391290,76.609550
994.138996,-8438.347739,-1628.453072,0.000000
994.139311,-8512.368333,-1850.514855,0.000000
994.139627,-8512.368333,-1480.411884,0.000000
994.139942,-8512.368333,-1554.432478,306.438199
994.140258,-8290.306550,-2072.576638,995.924147
994.140574,-8364.327145,-1258.350101,689.485948
994.140889,-9104.533087,-666.185348,766.095498
994.141205,-8734.430116,-962.267725,612.876398
994.141521,-8586.388927,-740.205942,1072.533697
994.141836,-8438.347739,-592.164754,229.828649
994.142152,-8660.409521,-888.247130,536.266849
994.142467,-8364.327145,-1184.329507,0.000000
994.142783,-7994.224174,-1184.329507,-612.876398
994.143099,-9030.512492,0.000000,76.609550
994.143414,-8512.368333,-1036.288319,-536.266849
994.143730,-8216.285956,-1628.453072,-919.314598
994.144046,-8216.285956,-814.226536,-766.095498
994.144361,-8290.306550,-222.061783,-536.266849
994.144677,-9622.677246,148.041188,-1532.190996
994.144992,-9178.553681,-370.102971,0.000000
994.145308,-9400.615463,-370.102971,-383.047749
994.145624,-9326.594869,296.082377,-153.219100
994.145939,-9622.677246,814.226536,1378.971896
994.146255,-10362.883188,666.185348,459.657299
994.146571,-9992.780217,222.061783,153.219100
994.146886,-9918.759623,74.020594,-383.047749
994.147202,-10140.821405,0.000000,-153.219100
994.147517,-9770.718434,1036.288319,-306.438199
994.147833,-9622.677246,0.000000,-1149.143247
994.148149,-9770.718434,-222.061783,-995.924147
994.148464,-10288.862594,-370.102971,-306.438199
994.148780,-10658.965565,-518.144159,-766.095498
994.149096,-10140.821405,0.000000,-306.438199
994.149411,-10214.842000,222.061783,-229.828649
994.149727,-10732.986159,0.000000,-459.657299
994.150043,-11029.068536,148.041188,-383.047749
994.150358,-10584.944971,148.041188,-536.266849
994.150674,-10066.800811,148.041188,-689.485948
994.150989,-10584.944971,-370.102971,-995.924147
994.151305,-10658.965565,-666.185348,-383.047749
994.151621,-10436.903782,-518.144159,-306.438199
994.151936,-10140.821405,592.164754,-536.266849
994.152252,-10140.821405,-444.123565,-536.266849
994.152568,-10288.862594,-370.102971,0.000000
994.152883,-10214.842000,-222.061783,76.609550
994.153199,-9992.780217,0.000000,153.219100
994.153514,-9770.718434,-518.144159,1072.533697
994.153830,-10362.883188,0.000000,306.438199
994.154146,-10066.800811,-222.061783,229.828649
994.154461,-9400.615463,-148.041188,0.000000
994.154777,-9252.574275,-666.185348,153.219100
994.155093,-9474.636058,-962.267725,-306.438199
994.155408,-9326.594869,-666.185348,0.000000
994.155724,-8882.471304,-814.226536,0.000000
994.156039,-8512.368333,-962.267725,-383.047749
994.156355,-8882.471304,-592.164754,-1302.362347
994.156671,-8882.471304,-814.226536,-229.828649
994.156986,-8734.430116,-814.226536,0.000000
994.157302,-8808.450710,-666.185348,0.000000
994.157618,-9252.574275,-592.164754,459.657299
994.157933,-9622.677246,-1628.453072,0.000000
994.158249,-8956.491898,-1480.411884,-766.095498
994.158564,-8290.306550,-1332.370696,-995.924147
994.158880,-8808.450710,-888.247130,-536.266849
994.159196,-8956.491898,-592.164754,-383.047749
994.159511,-9474.636058,-1110.308913,306.438199
994.159827,-9030.512492,-1036.288319,0.000000
994.160143,-9030.512492,-962.267725,229.828649
994.160458,-9474.636058,0.000000,919.314598
994.160774,-10214.842000,444.123565,842.705048
994.161089,-9400.615463,-444.123565,459.657299
994.161405,-8586.388927,222.061783,153.219100
994.161721,-9400.615463,222.061783,459.657299
994.162036,-8956.491898,-666.185348,-383.047749
994.162352,-8734.430116,-1258.350101,-229.828649
994.162668,-8142.265362,-814.226536,-1378.971896
994.162983,-8512.368333,-888.247130,-1302.362347
994.163299,-8734.430116,-1332.370696,-1149.143247
994.163615,-8364.327145,-1406.391290,-1378.971896
994.163930,-8512.368333,-1184.329507,-1149.143247
994.164246,-9252.574275,-1110.308913,-1072.533697
994.164561,-9770.718434,-296.082377,-383.047749
994.164877,-9918.759623,-148.041188,153.219100
994.165193,-9104.533087,0.000000,536.266849
994.165508,-10066.800811,592.164754,766.095498
994.165824,-11177.109724,888.247130,1072.533697
994.166140,-10510.924376,740.205942,919.314598
994.166455,-10288.862594,814.226536,689.485948
994.166771,-10510.924376,222.061783,919.314598
994.167086,-10140.821405,0.000000,306.438199
994.167402,-9992.780217,0.000000,-229.828649
994.167718,-8734.430116,-592.164754,-995.924147
994.168033,-9770.718434,-1998.556043,-1072.533697
994.168349,-9474.636058,-1184.329507,-1685.410096
994.168665,-9474.636058,-1776.494261,-1532.190996
994.168980,-9104.533087,-740.205942,-1838.629195
994.169296,-9474.636058,-1924.535449,-1991.848295
994.169612,-10436.903782,-888.247130,-995.924147
994.169927,-10362.883188,-666.185348,-536.266849
994.170243,-10436.903782,222.061783,229.828649
994.170559,-10510.924376,0.000000,766.095498
994.170874,-11029.068536,74.020594,766.095498
994.171190,-11695.253884,592.164754,842.705048
994.171506,-10881.027347,444.123565,1455.581446
994.171821,-10362.883188,0.000000,1072.533697
994.172137,-10066.800811,-296.082377,459.657299
994.172453,-10510.924376,-222.061783,1149.143247
994.172769,-9548.656652,-1258.350101,0.000000
994.173084,-9178.553681,-1184.329507,-536.266849
994.173400,-8734.430116,-2072.576638,-1225.752797
994.173716,-8956.491898,-1554.432478,-1149.143247
994.174031,-8290.306550,-2146.597232,-1072.533697
994.174347,-8956.491898,-888.247130,-1072.533697
994.174663,-8808.450710,-666.185348,-766.095498
994.174978,-9400.615463,-518.144159,-689.485948
994.175294,-9474.636058,0.000000,0.000000
994.175610,-9252.574275,222.061783,0.000000
994.175925,-9548.656652,0.000000,76.609550
994.176241,-9400.615463,148.041188,383.047749
994.176557,-9770.718434,0.000000,383.047749
994.176872,-7994.224174,-888.247130,-1149.143247
994.177188,-8734.430116,-370.102971,0.000000
994.177504,-9030.512492,-1332.370696,-229.828649
994.177820,-8734.430116,-1184.329507,-229.828649
994.178135,-8882.471304,-1480.411884,-383.047749
994.178451,-8290.306550,-1480.411884,-1302.362347
994.178767,-8438.347739,-1110.308913,-153.219100
994.179082,-8882.471304,-888.247130,-229.828649
994.179398,-9178.553681,-814.226536,0.000000
994.179714,-8882.471304,-370.102971,0.000000
994.180029,-9252.574275,-740.205942,-459.657299
994.180345,-9104.533087,-740.205942,-383.047749
994.180661,-9326.594869,-592.164754,-229.828649
994.180976,-8956.491898,-740.205942,-459.657299
994.181292,-9178.553681,-814.226536,995.924147
994.181608,-9474.636058,-1184.329507,0.000000
994.181923,-9326.594869,-1184.329507,-459.657299
994.182239,-9400.615463,-1110.308913,-306.438199
994.182555,-9252.574275,-1332.370696,-306.438199
994.182871,-10214.842000,-1702.473667,-459.657299
994.183186,-9400.615463,-1110.308913,-383.047749
994.183502,-9400.615463,-962.267725,-153.219100
994.183818,-9548.656652,-962.267725,-383.047749
994.184133,-9622.677246,0.000000,-306.438199
994.184449,-9696.697840,-518.144159,-383.047749
994.184765,-9918.759623,-518.144159,0.000000
994.185080,-9696.697840,0.000000,-383.047749
994.185396,-9770.718434,74.020594,0.000000
994.185712,-9400.615463,-888.247130,536.266849
994.186027,-9622.677246,0.000000,-306.438199
994.186343,-9696.697840,-444.123565,-383.047749
994.186659,-10140.821405,-518.144159,0.000000
994.186974,-9770.718434,-1480.411884,-536.266849
994.187290,-9992.780217,-814.226536,0.000000
994.187606,-9474.636058,-1110.308913,-995.924147
994.187922,-9696.697840,-962.267725,-306.438199
994.188237,-9844.739029,-814.226536,0.000000
994.188553,-9844.739029,-1036.288319,1455.581446
994.188869,-10066.800811,-888.247130,0.000000
994.189184,-10140.821405,-740.205942,76.609550
994.189500,-10510.924376,-518.144159,459.657299
994.189816,-10066.800811,-370.102971,383.047749
994.190131,-9696.697840,-962.267725,-153.219100
994.190447,-10214.842000,-444.123565,306.438199
994.190763,-10214.842000,-888.247130,153.219100
994.191078,-9918.759623,-962.267725,-306.438199
994.191394,-9474.636058,-1258.350101,-612.876398
994.191710,-10881.027347,-1110.308913,-306.438199
994.192025,-9622.677246,-1480.411884,-689.485948
994.192341,-9252.574275,-1850.514855,-995.924147
994.192657,-8808.450710,-1924.535449,-842.705048
994.192973,-9030.512492,-1702.473667,-1991.848295
994.193288,-9474.636058,-1480.411884,-766.095498
994.193604,-9400.615463,-1110.308913,-459.657299
994.193920,-9104.533087,-962.267725,-306.438199
994.194235,-9400.615463,-740.205942,0.000000
994.194551,-9770.718434,0.000000,-2757.943793
994.194867,-9252.574275,-518.144159,153.219100
994.195182,-9326.594869,-444.123565,153.219100
994.195498,-9326.594869,-814.226536,153.219100
994.195814,-9252.574275,-1036.288319,153.219100
994.196129,-9104.533087,-740.205942,-1225.752797
994.196445,-8808.450710,-1332.370696,-536.266849
994.196761,-8660.409521,-1480.411884,-919.314598
994.197076,-8586.388927,-1702.473667,-842.705048
994.197392,-8438.347739,-1924.535449,-1762.019645
994.197708,-8512.368333,-1702.473667,-766.095498
994.198024,-8808.450710,-1406.391290,-689.485948
994.198339,-8956.491898,-1184.329507,-536.266849
994.198655,-9474.636058,-888.247130,-153.219100
994.198971,-9474.636058,0.000000,-229.828649
994.199286,-9548.656652,148.041188,0.000000
994.199602,-9918.759623,0.000000,153.219100
994.199918,-9770.718434,296.082377,459.657299
994.200233,-9918.759623,222.061783,229.828649
994.200549,-9770.718434,0.000000,-383.047749
994.200865,-9622.677246,0.000000,0.000000
994.201180,-9622.677246,-592.164754,-306.438199
994.201496,-9474.636058,-222.061783,-383.047749
994.201812,-9770.718434,-296.082377,-1072.533697
994.202127,-9770.718434,-222.061783,-536.266849
994.202443,-9918.759623,0.000000,0.000000
994.202759,-9992.780217,518.144159,306.438199
994.203074,-10436.903782,1036.288319,919.314598
994.203390,-10732.986159,2072.576638,1225.752797
994.203706,-10732.986159,2146.597232,1838.629195
994.204022,-10955.047942,2072.576638,2145.067394
994.204337,-10807.006753,1776.494261,1838.629195
994.204653,-10436.903782,1628.453072,1838.629195
994.204969,-10584.944971,1258.350101,153.219100
994.205284,-9696.697840,962.267725,536.266849
994.205600,-9400.615463,148.041188,612.876398
994.205916,-9326.594869,-222.061783,459.657299
994.206231,-9178.553681,-444.123565,1225.752797
994.206547,-9104.533087,-370.102971,383.047749
994.206863,-8956.491898,-296.082377,153.219100
994.207178,-9326.594869,0.000000,459.657299
994.207494,-9400.615463,518.144159,995.924147
994.207810,-9770.718434,1110.308913,689.485948
994.208125,-9770.718434,1184.329507,1608.800546
994.208441,-9918.759623,1406.391290,1915.238745
994.208757,-9992.780217,1332.370696,1685.410096
994.209073,-9770.718434,962.267725,1915.238745
994.209388,-9474.636058,740.205942,1149.143247
994.209704,-9252.574275,518.144159,1149.143247
994.210020,-9104.533087,-148.041188,612.876398
994.210335,-8660.409521,-740.205942,229.828649
994.210651,-7920.203579,-1258.350101,-306.438199
994.210967,-7920.203579,-1332.370696,-612.876398
994.211282,-8216.285956,-1850.514855,-766.095498
994.211598,-8068.244768,-1702.473667,-919.314598
994.211914,-8364.327145,-1406.391290,-229.828649
994.212229,-8882.471304,-1332.370696,0.000000
994.212545,-8956.491898,-962.267725,0.000000
994.212861,-9178.553681,-370.102971,0.000000
994.213176,-9474.636058,-518.144159,0.000000
994.213492,-9548.656652,-296.082377,383.047749
994.213808,-9178.553681,-962.267725,0.000000
994.214124,-9474.636058,-740.205942,0.000000
994.214439,-9252.574275,-962.267725,0.000000
994.214755,-9252.574275,-1258.350101,0.000000
994.215071,-9104.533087,-1406.391290,229.828649
994.215386,-9030.512492,-1110.308913,-459.657299
994.215702,-9178.553681,-1184.329507,-229.828649
994.216018,-9474.636058,-814.226536,0.000000
994.216333,-9400.615463,-518.144159,0.000000
994.216649,-10214.842000,-444.123565,0.000000
994.216965,-9992.780217,74.020594,0.000000
994.217280,-10066.800811,444.123565,0.000000
994.217596,-10510.924376,814.226536,76.609550
994.217912,-10436.903782,666.185348,459.657299
994.218227,-9992.780217,518.144159,536.266849
994.218543,-10362.883188,962.267725,153.219100
994.218859,-10510.924376,888.247130,153.219100
994.219175,-10214.842000,518.144159,-153.219100
994.219490,-10584.944971,814.226536,0.000000
994.219806,-10066.800811,296.082377,-383.047749
994.220122,-9992.780217,222.061783,-383.047749
994.220437,-9992.780217,222.061783,0.000000
994.220753,-10140.821405,148.041188,229.828649
994.221069,-10584.944971,592.164754,766.095498
994.221384,-10362.883188,814.226536,842.705048
994.221700,-10510.924376,1184.329507,919.314598
994.222016,-10510.924376,1258.350101,1302.362347
994.222331,-10510.924376,1406.391290,842.705048
994.222647,-10436.903782,1110.308913,842.705048
994.222963,-10288.862594,1332.370696,1225.752797
994.223278,-9992.780217,666.185348,1225.752797
994.223594,-9474.636058,222.061783,919.314598
994.223910,-9992.780217,444.123565,1455.581446
994.224226,-9400.615463,0.000000,612.876398
994.224541,-9178.553681,-296.082377,306.438199
994.224857,-9178.553681,-370.102971,383.047749
994.225173,-8956.491898,-518.144159,306.438199
994.225488,-8660.409521,-592.164754,76.609550
994.225804,-9030.512492,-444.123565,0.000000
994.226120,-8882.471304,0.000000,842.705048
994.226435,-9178.553681,0.000000,766.095498
994.226751,-9030.512492,-1036.288319,536.266849
994.227067,-9474.636058,1036.288319,1532.190996
994.227382,-9326.594869,444.123565,1532.190996
994.227698,-9474.636058,666.185348,1378.971896
994.228014,-8586.388927,148.041188,1149.143247
994.228329,-9252.574275,666.185348,766.095498
994.228645,-8734.430116,0.000000,689.485948
994.228961,-8586.388927,0.000000,306.438199
994.229277,-8216.285956,-1406.391290,153.219100
994.229592,-8438.347739,-666.185348,-153.219100
994.229908,-8586.388927,-962.267725,-995.924147
994.230224,-8438.347739,-1036.288319,-459.657299
994.230539,-8290.306550,-962.267725,0.000000
994.230855,-8660.409521,-1036.288319,-383.047749
994.231171,-8586.388927,-740.205942,153.219100
994.231486,-9104.533087,-740.205942,-153.219100
994.231802,-9178.553681,0.000000,0.000000
994.232118,-9326.594869,-444.123565,229.828649
994.232433,-10066.800811,0.000000,383.047749
994.232749,-9030.512492,74.020594,-306.438199
994.233065,-9992.780217,74.020594,842.705048
994.233380,-10066.800811,296.082377,689.485948
994.233696,-9844.739029,0.000000,766.095498
994.234012,-10288.862594,-148.041188,766.095498
994.234328,-9696.697840,-814.226536,1762.019645
994.234643,-9622.677246,-296.082377,306.438199
994.234959,-10066.800811,0.000000,153.219100
994.235275,-9770.718434,-740.205942,-229.828649
994.235590,-9326.594869,-296.082377,0.000000
994.235906,-9844.739029,0.000000,-383.047749
994.236222,-10362.883188,-370.102971,0.000000
994.236537,-9918.759623,-296.082377,-842.705048
994.236853,-10066.800811,74.020594,-612.876398
994.237169,-10881.027347,1332.370696,-229.828649
994.237484,-10732.986159,592.164754,153.219100
994.237800,-10732.986159,666.185348,306.438199
994.238116,-10214.842000,740.205942,76.609550
994.238431,-10658.965565,1184.329507,536.266849
994.238747,-11177.109724,592.164754,689.485948
994.239063,-11029.068536,0.000000,919.314598
994.239379,-9844.739029,296.082377,459.657299
994.239694,-9770.718434,370.102971,306.438199
994.240010,-10732.986159,148.041188,689.485948
994.240326,-10140.821405,0.000000,1072.533697
994.240641,-9918.759623,-296.082377,612.876398
994.240957,-9474.636058,-888.247130,229.828649
994.241273,-9918.759623,-444.123565,76.609550
994.241588,-10807.006753,592.164754,459.657299
994.241904,-9326.594869,0.000000,76.609550
994.242220,-8882.471304,-370.102971,0.000000
994.242535,-9548.656652,-444.123565,0.000000
994.242851,-9474.636058,-666.185348,153.219100
994.243167,-8734.430116,-814.226536,919.314598
994.243482,-9030.512492,-148.041188,1072.533697
994.243798,-9474.636058,-370.102971,766.095498
994.244114,-9622.677246,-370.102971,766.095498
994.244429,-9104.533087,0.000000,1455.581446
994.244745,-8734.430116,-296.082377,536.266849
994.245061,-8882.471304,-1110.308913,229.828649
994.245377,-8956.491898,-962.267725,612.876398
994.245692,-8586.388927,-1110.308913,0.000000
994.246008,-8734.430116,-1258.350101,-536.266849
994.246324,-8586.388927,-1036.288319,0.000000
994.246639,-8660.409521,-814.226536,0.000000
994.246955,-8734.430116,-592.164754,0.000000
994.247271,-8660.409521,-666.185348,76.609550
994.247586,-8956.491898,-444.123565,76.609550
994.247902,-9104.533087,-222.061783,153.219100
994.248218,-8882.471304,0.000000,153.219100
994.248533,-8956.491898,0.000000,0.000000
994.248849,-8216.285956,-1480.411884,1532.190996
994.249165,-9030.512492,-814.226536,76.609550
994.249480,-9104.533087,-592.164754,-306.438199
994.249796,-8808.450710,-740.205942,0.000000
994.250112,-8882.471304,-444.123565,-459.657299
994.250428,-8734.430116,-1110.308913,842.705048
994.250743,-9326.594869,-370.102971,0.000000
994.251059,-9178.553681,-222.061783,0.000000
994.251375,-9474.636058,-370.102971,76.609550
994.251690,-9548.656652,0.000000,-689.485948
994.252006,-9992.780217,814.226536,383.047749
994.252322,-10584.944971,666.185348,1225.752797
994.252637,-10436.903782,370.102971,1378.971896
994.252953,-10288.862594,0.000000,766.095498
994.253269,-11325.150913,444.123565,3600.648841
994.253584,-9696.697840,370.102971,536.266849
994.253900,-10066.800811,-296.082377,229.828649
994.254216,-9770.718434,-740.205942,-229.828649
994.254531,-9400.615463,-1110.308913,-689.485948
994.254847,-9918.759623,-370.102971,-1915.238745
994.255163,-9918.759623,-740.205942,-536.266849
994.255479,-9770.718434,-814.226536,-229.828649
994.255794,-9696.697840,-296.082377,-459.657299
994.256110,-10140.821405,666.185348,383.047749
994.256426,-10807.006753,666.185348,1532.190996
994.256741,-10510.924376,1110.308913,1302.362347
994.257057,-10881.027347,1406.391290,1991.848295
994.257373,-11177.109724,1332.370696,1991.848295
994.257688,-11621.233289,888.247130,1225.752797
994.258004,-10955.047942,962.267725,1455.581446
994.258320,-9844.739029,444.123565,1149.143247
994.258635,-9474.636058,0.000000,76.609550
994.258951,-9918.759623,-518.144159,0.000000
994.259267,-8586.388927,-2072.576638,76.609550
994.259582,-8660.409521,-962.267725,-766.095498
994.259898,-9178.553681,-1110.308913,-995.924147
994.260214,-8734.430116,-962.267725,-842.705048
994.260530,-9252.574275,-518.144159,-612.876398
994.260845,-8660.409521,-370.102971,-459.657299
994.261161,-9326.594869,0.000000,459.657299
994.261477,-9844.739029,666.185348,612.876398
994.261792,-9770.718434,666.185348,1302.362347
994.262108,-10510.924376,1776.494261,1608.800546
994.262424,-9696.697840,1110.308913,1302.362347
994.262739,-10066.800811,1184.329507,1762.019645
994.263055,-9548.656652,666.185348,1378.971896
994.263371,-9178.553681,370.102971,1149.143247
994.263686,-8586.388927,-370.102971,1072.533697
994.264002,-8660.409521,-1110.308913,-306.438199
994.264318,-8068.244768,-1998.556043,-766.095498
994.264633,-8290.306550,-1554.432478,-612.876398
994.264949,-7550.100608,-2516.700203,-459.657299
994.265265,-8142.265362,-740.205942,-842.705048
994.265581,-8364.327145,-666.185348,-612.876398
994.265896,-9400.615463,444.123565,229.828649
994.266212,-8956.491898,444.123565,536.266849
994.266527,-9104.533087,1776.494261,995.924147
994.266843,-9844.739029,2072.576638,1608.800546
994.267159,-9992.780217,1258.350101,1302.362347
994.267474,-9622.677246,1480.411884,1072.533697
994.267790,-9252.574275,962.267725,842.705048
994.268105,-9622.677246,-148.041188,459.657299
994.268421,-9030.512492,222.061783,612.876398
994.268737,-9474.636058,-518.144159,306.438199
994.269052,-8660.409521,-518.144159,0.000000
994.269368,-9252.574275,-444.123565,-153.219100
994.269684,-9104.533087,-814.226536,0.000000
994.269999,-9030.512492,74.020594,0.000000
994.270315,-9474.636058,0.000000,306.438199
994.270631,-9844.739029,222.061783,536.266849
994.270946,-10066.800811,296.082377,2145.067394
994.271262,-10362.883188,962.267725,919.314598
994.271578,-10066.800811,1406.391290,995.924147
994.271893,-10214.842000,1628.453072,1072.533697
994.272209,-10658.965565,1110.308913,1302.362347
994.272525,-9918.759623,1184.329507,459.657299
994.272840,-9992.780217,592.164754,612.876398
994.273156,-9992.780217,0.000000,459.657299
994.273471,-9770.718434,-222.061783,383.047749
994.273787,-9548.656652,-296.082377,76.609550
994.274103,-9252.574275,-1036.288319,76.609550
994.274418,-9548.656652,-814.226536,0.000000
994.274734,-9696.697840,-740.205942,0.000000
994.275050,-9474.636058,-518.144159,306.438199
994.275365,-9474.636058,74.020594,383.047749
994.275681,-9918.759623,0.000000,76.609550
994.275997,-10066.800811,0.000000,153.219100
994.276312,-9844.739029,74.020594,153.219100
994.276628,-9918.759623,296.082377,306.438199
994.276944,-9548.656652,-740.205942,766.095498
994.277259,-9992.780217,0.000000,536.266849
994.277575,-9696.697840,-222.061783,383.047749
994.277891,-9622.677246,-370.102971,229.828649
994.278206,-9474.636058,0.000000,1915.238745
994.278522,-9474.636058,-370.102971,0.000000
994.278837,-9548.656652,-518.144159,229.828649
994.279153,-9326.594869,-814.226536,0.000000
994.279469,-9474.636058,-740.205942,0.000000
994.279784,-8586.388927,-1850.514855,153.219100
994.280100,-9474.636058,-1110.308913,-229.828649
994.280416,-8808.450710,-1258.350101,-383.047749
994.280731,-9104.533087,-814.226536,-459.657299
994.281047,-9030.512492,-592.164754,-229.828649
994.281363,-8956.491898,-370.102971,76.609550
994.281678,-9252.574275,-296.082377,76.609550
994.281994,-9400.615463,0.000000,306.438199
994.282310,-9474.636058,0.000000,0.000000
994.282625,-9918.759623,592.164754,1225.752797
994.282941,-9326.594869,148.041188,842.705048
994.283257,-9400.615463,444.123565,766.095498
994.283572,-9474.636058,370.102971,766.095498
994.283888,-9474.636058,148.041188,612.876398
994.284203,-9474.636058,222.061783,306.438199
994.284519,-9770.718434,296.082377,766.095498
994.284835,-9548.656652,296.082377,612.876398
994.285150,-9474.636058,518.144159,766.095498
994.285466,-9400.615463,370.102971,612.876398
994.285782,-9030.512492,444.123565,306.438199
994.286097,-9252.574275,222.061783,153.219100
994.286413,-9178.553681,296.082377,153.219100
994.286729,-9178.553681,222.061783,0.000000
994.287044,-9400.615463,444.123565,-1072.533697
994.287360,-9400.615463,296.082377,153.219100
994.287676,-9548.656652,222.061783,536.266849
994.287991,-9474.636058,666.185348,612.876398
994.288307,-9622.677246,666.185348,612.876398
994.288623,-9548.656652,518.144159,766.095498
994.288938,-9918.759623,592.164754,766.095498
994.289254,-9696.697840,518.144159,689.485948
994.289569,-9770.718434,370.102971,689.485948
994.289885,-9918.759623,296.082377,995.924147
994.290201,-9622.677246,296.082377,1072.533697
994.290516,-9548.656652,370.102971,1072.533697
994.290832,-9548.656652,-296.082377,459.657299
994.291148,-9474.636058,-148.041188,153.219100
994.291463,-9474.636058,518.144159,919.314598
994.291779,-9474.636058,148.041188,1302.362347
994.292095,-9474.636058,0.000000,1302.362347
994.292410,-9474.636058,-814.226536,459.657299
994.292726,-9030.512492,-1480.411884,-153.219100
994.293042,-9474.636058,-1998.556043,-689.485948
994.293357,-9104.533087,-2368.659014,-842.705048
994.293673,-8734.430116,-2664.741391,-1225.752797
994.293989,-8734.430116,-2812.782580,-1455.581446
994.294304,-8734.430116,-2738.761985,-1072.533697
994.294620,-9474.636058,-2590.720797,-1072.533697
994.294935,-9252.574275,-2146.597232,-612.876398
994.295251,-9400.615463,-1702.473667,-153.219100
994.295567,-9622.677246,-1332.370696,153.219100
994.295882,-10140.821405,-666.185348,612.876398
994.296198,-10214.842000,-1184.329507,536.266849
994.296514,-9844.739029,-962.267725,612.876398
994.296829,-9992.780217,-814.226536,0.000000
994.297145,-9770.718434,-1036.288319,-459.657299
994.297461,-7994.224174,-1850.514855,-153.219100
994.297776,-9178.553681,-1702.473667,-1378.971896
994.298092,-8882.471304,-2294.638420,-1762.019645
994.298408,-8586.388927,-2220.617826,-1991.848295
994.298723,-8882.471304,-1850.514855,-2911.162892
994.299039,-8808.450710,-1554.432478,-1608.800546
994.299355,-9178.553681,-1036.288319,-1532.190996
994.299670,-9548.656652,-888.247130,-1378.971896
994.299986,-9844.739029,-296.082377,-1149.143247
994.300301,-10807.006753,592.164754,-1378.971896
994.300617,-10584.944971,518.144159,-229.828649
994.300933,-10436.903782,296.082377,76.609550
994.301248,-10584.944971,518.144159,229.828649
994.301564,-10362.883188,74.020594,0.000000
994.301880,-10658.965565,444.123565,1149.143247
994.302195,-9844.739029,-666.185348,-536.266849
994.302511,-9696.697840,-592.164754,-842.705048
994.302827,-9548.656652,-666.185348,-459.657299
994.303142,-9770.718434,-666.185348,-153.219100
994.303458,-9918.759623,-370.102971,153.219100
994.303774,-10066.800811,0.000000,153.219100
994.304089,-10288.862594,370.102971,612.876398
994.304405,-10288.862594,518.144159,842.705048
994.304721,-10288.862594,444.123565,1838.629195
994.305036,-10288.862594,1036.288319,612.876398
994.305352,-10214.842000,962.267725,842.705048
994.305667,-10140.821405,592.164754,612.876398
994.305983,-9696.697840,-222.061783,383.047749
994.306299,-9770.718434,-222.061783,-842.705048
994.306614,-8956.491898,-592.164754,-689.485948
994.306930,-9030.512492,-666.185348,-536.266849
994.307246,-8808.450710,-592.164754,-536.266849
994.307561,-8808.450710,-592.164754,1532.190996
994.307877,-8956.491898,-888.247130,153.219100
994.308193,-9252.574275,-592.164754,459.657299
994.308508,-9548.656652,0.000000,766.095498
994.308824,-9252.574275,222.061783,919.314598
994.309140,-9326.594869,0.000000,1685.410096
994.309455,-9400.615463,518.144159,1302.362347
994.309771,-9400.615463,518.144159,1378.971896
994.310087,-9104.533087,74.020594,1072.533697
994.310402,-8808.450710,-592.164754,766.095498
994.310718,-7846.182985,-888.247130,0.000000
994.311033,-8290.306550,-962.267725,76.609550
994.311349,-7994.224174,-1332.370696,-612.876398
994.311665,-7772.162391,-1850.514855,-919.314598
994.311980,-7920.203579,-2368.659014,383.047749
994.312296,-8512.368333,-2072.576638,-1072.533697
994.312612,-8364.327145,-1776.494261,-1225.752797
994.312927,-8660.409521,-1406.391290,-536.266849
994.313243,-9104.533087,-1184.329507,-842.705048
994.313559,-9104.533087,-740.205942,-2528.115143
994.313874,-9326.594869,-518.144159,0.000000
994.314190,-9844.739029,-740.205942,0.000000
994.314506,-9918.759623,-740.205942,-153.219100
994.314821,-9770.718434,-592.164754,-383.047749
994.315137,-9770.718434,-1258.350101,-383.047749
994.315453,-9696.697840,-1036.288319,-459.657299
994.315768,-9696.697840,-1036.288319,-766.095498
994.316084,-9474.636058,-1332.370696,-1072.533697
994.316399,-9474.636058,-1480.411884,-1991.848295
994.316715,-9622.677246,-1258.350101,-1378.971896
994.317031,-9548.656652,-1406.391290,-1608.800546
994.317346,-9622.677246,-1258.350101,-1685.410096
994.317662,-9918.759623,-814.226536,-1225.752797
994.317978,-10362.883188,-518.144159,-2834.553343
994.318293,-9696.697840,0.000000,-689.485948
994.318609,-10066.800811,-518.144159,-919.314598
994.318925,-10066.800811,-444.123565,-766.095498
994.319240,-10140.821405,-148.041188,-536.266849
994.319556,-10362.883188,-296.082377,-536.266849
994.319872,-10362.883188,0.000000,-689.485948
994.320187,-10288.862594,-370.102971,-612.876398
994.320503,-10732.986159,-370.102971,-383.047749
994.320819,-9992.780217,-296.082377,612.876398
994.321134,-10584.944971,-296.082377,-383.047749
994.321450,-9918.759623,-296.082377,0.000000
994.321765,-10658.965565,-148.041188,0.000000
994.322081,-10066.800811,-518.144159,0.000000
994.322397,-9918.759623,-296.082377,306.438199
994.322712,-9918.759623,148.041188,306.438199
994.323028,-10214.842000,-296.082377,76.609550
994.323344,-9770.718434,148.041188,76.609550
994.323659,-9844.739029,-444.123565,306.438199
994.323975,-10066.800811,-222.061783,-995.924147
994.324291,-9252.574275,-444.123565,76.609550
994.324606,-9696.697840,-814.226536,0.000000
994.324922,-9030.512492,-518.144159,-459.657299
994.325238,-9548.656652,-740.205942,-612.876398
994.325553,-9252.574275,-1110.308913,-229.828649
994.325869,-9030.512492,-1258.350101,0.000000
994.326185,-9178.553681,-1184.329507,76.609550
994.326500,-8956.491898,-1184.329507,76.609550
994.326816,-8216.285956,-1110.308913,-612.876398
994.327131,-9178.553681,-740.205942,536.266849
994.327447,-9326.594869,-1036.288319,842.705048
994.327763,-8956.491898,-666.185348,383.047749
994.328078,-9104.533087,-296.082377,689.485948
994.328394,-8882.471304,-888.247130,919.314598
994.328710,-8882.471304,-888.247130,306.438199
994.329025,-8734.430116,-592.164754,0.000000
994.329341,-8438.347739,-518.144159,76.609550
994.329657,-9326.594869,-666.185348,-995.924147
994.329972,-8512.368333,-1110.308913,-459.657299
994.330288,-8142.265362,-1258.350101,-842.705048
994.330604,-7772.162391,-592.164754,-766.095498
994.330919,-8808.450710,-666.185348,-306.438199
994.331235,-7772.162391,-1406.391290,-689.485948
994.331550,-8438.347739,-962.267725,-612.876398
994.331866,-8660.409521,-666.185348,-995.924147
994.332182,-8660.409521,0.000000,-459.657299
994.332497,-9474.636058,0.000000,0.000000
994.332813,-9474.636058,0.000000,229.828649
994.333129,-9252.574275,-222.061783,-459.657299
994.333444,-9548.656652,-148.041188,-229.828649
994.333760,-9548.656652,0.000000,0.000000
994.334076,-8882.471304,0.000000,-919.314598
994.334391,-9104.533087,-444.123565,-1302.362347
994.334707,-9548.656652,-814.226536,-1455.581446
994.335023,-9548.656652,-444.123565,-766.095498
994.335338,-9696.697840,0.000000,-229.828649
994.335654,-9770.718434,74.020594,-229.828649
994.335970,-10066.800811,-518.144159,-306.438199
994.336285,-10807.006753,148.041188,0.000000
994.336601,-10214.842000,740.205942,229.828649
994.336916,-10140.821405,518.144159,995.924147
994.337232,-10807.006753,444.123565,-459.657299
994.337548,-10510.924376,-148.041188,-306.438199
994.337863,-10140.821405,-296.082377,-612.876398
994.338179,-10066.800811,-740.205942,-842.705048
994.338495,-9326.594869,-592.164754,0.000000
994.338810,-9696.697840,-962.267725,-1072.533697
994.339126,-10066.800811,-666.185348,-306.438199
994.339442,-10066.800811,-518.144159,0.000000
994.339757,-10066.800811,-962.267725,-153.219100
994.340073,-10288.862594,-592.164754,612.876398
994.340389,-10066.800811,-296.082377,0.000000
994.340704,-10436.903782,148.041188,383.047749
994.341020,-10066.800811,0.000000,766.095498
994.341336,-10362.883188,0.000000,766.095498
994.341651,-10140.821405,148.041188,536.266849
994.341967,-10140.821405,74.020594,1072.533697
994.342282,-9992.780217,0.000000,1072.533697
994.342598,-9548.656652,-740.205942,229.828649
994.342914,-8882.471304,74.020594,-229.828649
994.343229,-8734.430116,-1036.288319,-689.485948
994.343545,-8734.430116,-666.185348,-766.095498
994.343861,-8512.368333,-1258.350101,-612.876398
994.344176,-8734.430116,-1480.411884,-1225.752797
994.344492,-9326.594869,-1406.391290,-1378.971896
994.344808,-8882.471304,-1184.329507,-689.485948
994.345123,-8956.491898,-592.164754,-612.876398
994.345439,-9178.553681,-222.061783,459.657299
994.345755,-9474.636058,-666.185348,536.266849
994.346070,-9474.636058,-222.061783,383.047749
994.346386,-9548.656652,0.000000,1072.533697
994.346702,-9770.718434,222.061783,1302.362347
994.347017,-9622.677246,-444.123565,919.314598
994.347333,-9178.553681,-1036.288319,229.828649
994.347648,-8956.491898,-370.102971,76.609550
994.347964,-9104.533087,-962.267725,0.000000
994.348280,-8586.388927,-1480.411884,-995.924147
994.348595,-8364.327145,-1554.432478,-1225.752797
994.348911,-8364.327145,-1110.308913,-919.314598
994.349227,-8216.285956,-1850.514855,-1302.362347
994.349542,-8660.409521,-1258.350101,-1149.143247
994.349858,-8734.430116,-1184.329507,-1072.533697
994.350174,-8660.409521,0.000000,-1378.971896
994.350489,-9104.533087,-296.082377,-383.047749
994.350805,-9992.780217,-370.102971,-153.219100
994.351121,-9400.615463,-222.061783,0.000000
994.351436,-9622.677246,296.082377,229.828649
994.351752,-10066.800811,444.123565,766.095498
994.352068,-9548.656652,0.000000,459.657299
994.352383,-9770.718434,0.000000,0.000000
994.352699,-9104.533087,-296.082377,-229.828649
994.353014,-9548.656652,-592.164754,-153.219100
994.353330,-8808.450710,-888.247130,-536.266849
994.353646,-9104.533087,-1184.329507,-229.828649
994.353961,-8956.491898,-740.205942,-689.485948
994.354277,-9252.574275,-1036.288319,-1225.752797
994.354593,-9474.636058,0.000000,1302.362347
994.354908,-9474.636058,-666.185348,-306.438199
994.355224,-9622.677246,0.000000,-229.828649
994.355540,-9770.718434,0.000000,-383.047749
994.355855,-10436.903782,370.102971,76.609550
994.356171,-11621.233289,888.247130,-766.095498
994.356487,-10288.862594,74.020594,76.609550
994.356802,-10140.821405,-222.061783,76.609550
994.357118,-10510.924376,0.000000,153.219100
994.357434,-10214.842000,-666.185348,0.000000
994.357749,-9474.636058,-1702.473667,0.000000
994.358065,-9918.759623,-740.205942,-612.876398
994.358380,-9844.739029,-1258.350101,-536.266849
994.358696,-9992.780217,-814.226536,-383.047749
994.359012,-9400.615463,-1110.308913,-612.876398
994.359327,-9770.718434,-962.267725,0.000000
994.359643,-9770.718434,-518.144159,-153.219100
994.359959,-10140.821405,-666.185348,153.219100
994.360274,-10066.800811,-296.082377,0.000000
994.360590,-9844.739029,0.000000,-1685.410096
994.360906,-10288.862594,-296.082377,0.000000
994.361221,-9622.677246,0.000000,229.828649
994.361537,-10140.821405,-148.041188,76.609550
994.361853,-9326.594869,-592.164754,0.000000
994.362168,-9104.533087,-666.185348,-612.876398
994.362484,-9326.594869,-1184.329507,-459.657299
994.362800,-8882.471304,-1036.288319,-536.266849
994.363115,-8734.430116,-1406.391290,-689.485948
994.363431,-9104.533087,-1924.535449,-1302.362347
994.363746,-9030.512492,-1184.329507,-1072.533697
994.364062,-8882.471304,-1332.370696,-766.095498
994.364378,-9030.512492,-1110.308913,-612.876398
994.364693,-8882.471304,-740.205942,-536.266849
994.365009,-8512.368333,-1184.329507,0.000000
994.365325,-9400.615463,-370.102971,0.000000
994.365640,-9474.636058,-592.164754,76.609550
994.365956,-9104.533087,-518.144159,76.609550
994.366272,-9326.594869,-592.164754,0.000000
994.366587,-9474.636058,-962.267725,459.657299
994.366903,-9104.533087,-962.267725,0.000000
994.367219,-9030.512492,-1036.288319,-459.657299
994.367534,-8956.491898,-1480.411884,-459.657299
994.367850,-8882.471304,-1554.432478,-766.095498
994.368166,-9622.677246,-1480.411884,-842.705048
994.368481,-8734.430116,-1628.453072,-689.485948
994.368797,-8882.471304,-1332.370696,-536.266849
994.369112,-9178.553681,-1332.370696,-459.657299
994.369428,-9178.553681,-1850.514855,-459.657299
994.369744,-9400.615463,-1110.308913,-459.657299
994.370059,-9400.615463,-740.205942,0.000000
994.370375,-9770.718434,-370.102971,76.609550
994.370691,-9622.677246,0.000000,153.219100
994.371007,-9696.697840,962.267725,-1378.971896
994.371322,-9696.697840,-888.247130,0.000000
994.371638,-9770.718434,-1184.329507,-383.047749
994.371954,-9622.677246,-1480.411884,0.000000
994.372269,-9548.656652,-1332.370696,-536.266849
994.372585,-9252.574275,-1406.391290,0.000000
994.372901,-9770.718434,-1258.350101,-383.047749
994.373217,-9622.677246,-962.267725,-306.438199
994.373532,-9770.718434,-592.164754,306.438199
994.373848,-9696.697840,0.000000,612.876398
994.374164,-10436.903782,-296.082377,306.438199
994.374480,-10584.944971,-148.041188,306.438199
994.374795,-10288.862594,0.000000,229.828649
994.375111,-10066.800811,-296.082377,76.609550
994.375427,-9992.780217,296.082377,-766.095498
994.375743,-9770.718434,-444.123565,-229.828649
994.376058,-9622.677246,-814.226536,-612.876398
994.376374,-9548.656652,-1036.288319,-766.095498
994.376690,-9474.636058,-1332.370696,383.047749
994.377006,-9844.739029,-1554.432478,-1072.533697
994.377321,-9400.615463,-1332.370696,-1225.752797
994.377637,-9474.636058,-1184.329507,-995.924147
994.377953,-9622.677246,-1258.350101,-995.924147
994.378269,-9104.533087,-1184.329507,-459.657299
994.378584,-9844.739029,-296.082377,-306.438199
994.378900,-10066.800811,0.000000,459.657299
994.379216,-9992.780217,74.020594,689.485948
994.379531,-10436.903782,222.061783,842.705048
994.379847,-10362.883188,0.000000,919.314598
994.380163,-9696.697840,-222.061783,459.657299
994.380479,-9326.594869,-814.226536,-612.876398
994.380794,-8882.471304,-1184.329507,-919.314598
994.381110,-8734.430116,-1554.432478,-1225.752797
994.381426,-9178.553681,-1702.473667,-1378.971896
994.381742,-8438.347739,-2368.659014,-1608.800546
994.382057,-8364.327145,-1924.535449,-1915.238745
994.382373,-8586.388927,-1258.350101,-689.485948
994.382689,-8290.306550,0.000000,766.095498
994.383005,-9400.615463,-370.102971,0.000000
994.383320,-9474.636058,0.000000,0.000000
994.383636,-9696.697840,0.000000,229.828649
994.383952,-9548.656652,222.061783,612.876398
994.384268,-9474.636058,-148.041188,-383.047749
994.384583,-9326.594869,-296.082377,0.000000
994.384899,-9400.615463,-592.164754,-459.657299
994.385215,-9252.574275,-888.247130,-689.485948
994.385531,-8808.450710,-814.226536,-612.876398
994.385846,-9030.512492,-666.185348,-383.047749
994.386162,-8660.409521,-814.226536,-383.047749
994.386478,-9252.574275,-222.061783,0.000000
994.386793,-9622.677246,0.000000,459.657299
994.387109,-9474.636058,0.000000,2681.334243
994.387425,-10066.800811,1036.288319,1302.362347
994.387741,-10214.842000,1628.453072,2604.724693
994.388056,-10807.006753,1480.411884,2528.115143
994.388372,-10362.883188,1554.432478,1991.848295
994.388688,-9918.759623,1702.473667,1455.581446
994.389004,-9696.697840,518.144159,1149.143247
994.389319,-9548.656652,0.000000,842.705048
994.389635,-9104.533087,-592.164754,229.828649
994.389951,-8882.471304,-1184.329507,995.924147
994.390267,-8660.409521,-1406.391290,153.219100
994.390582,-9104.533087,-1332.370696,383.047749
994.390898,-9104.533087,-888.247130,76.609550
994.391214,-9326.594869,0.000000,766.095498
994.391530,-9474.636058,222.061783,1915.238745
994.391845,-10436.903782,1332.370696,1838.629195
994.392161,-10807.006753,1998.556043,2374.896044
994.392477,-10955.047942,1924.535449,2221.676944
994.392793,-10658.965565,1850.514855,2221.676944
994.393108,-10732.986159,1406.391290,2451.505594
994.393424,-10436.903782,1184.329507,1838.629195
994.393740,-9548.656652,592.164754,1225.752797
994.394055,-9030.512492,0.000000,306.438199
994.394371,-8882.471304,-740.205942,-229.828649
994.394687,-8438.347739,-962.267725,-229.828649
994.395003,-8586.388927,-962.267725,-459.657299
994.395318,-8438.347739,-1036.288319,-766.095498
994.395634,-8586.388927,-814.226536,-919.314598
994.395950,-7994.224174,-518.144159,-1915.238745
994.396266,-9474.636058,0.000000,0.000000
994.396581,-9252.574275,0.000000,76.609550
994.396897,-9770.718434,296.082377,229.828649
994.397213,-9770.718434,518.144159,536.266849
994.397529,-9696.697840,888.247130,153.219100
994.397844,-9696.697840,0.000000,612.876398
994.398160,-9252.574275,-444.123565,76.609550
994.398476,-9474.636058,-740.205942,0.000000
994.398792,-8808.450710,-1480.411884,-919.314598
994.399107,-9252.574275,-1110.308913,-536.266849
994.399423,-8808.450710,-1480.411884,-459.657299
994.399739,-9252.574275,-1332.370696,-689.485948
994.400055,-9326.594869,-1036.288319,-306.438199
994.400370,-9104.533087,-148.041188,612.876398
994.400686,-9548.656652,-148.041188,-153.219100
994.401002,-9844.739029,148.041188,153.219100
994.401317,-9918.759623,74.020594,306.438199
994.401633,-9918.759623,518.144159,153.219100
994.401949,-9696.697840,1406.391290,766.095498
994.402265,-9770.718434,518.144159,229.828649
994.402580,-9770.718434,370.102971,0.000000
994.402896,-9622.677246,0.000000,0.000000
994.403212,-9104.533087,-888.247130,-612.876398
994.403528,-9326.594869,-666.185348,-689.485948
994.403843,-9252.574275,-444.123565,-536.266849
994.404159,-9326.594869,-592.164754,-383.047749
994.404475,-9400.615463,-370.102971,-229.828649
994.404791,-9178.553681,-1554.432478,76.609550
994.405106,-9992.780217,0.000000,383.047749
994.405422,-9770.718434,222.061783,689.485948
994.405738,-10214.842000,666.185348,689.485948
994.406054,-10510.924376,962.267725,1455.581446
994.406369,-10510.924376,1110.308913,1838.629195
994.406685,-10288.862594,814.226536,1532.190996
994.407001,-10214.842000,518.144159,1685.410096
994.407317,-9844.739029,518.144159,1225.752797
994.407632,-10140.821405,-74.020594,1302.362347
994.407948,-9548.656652,0.000000,766.095498
994.408264,-9474.636058,-370.102971,229.828649
994.408579,-9252.574275,-518.144159,383.047749
994.408895,-9252.574275,0.000000,306.438199
994.409211,-9548.656652,-1258.350101,-1608.800546
994.409527,-9104.533087,0.000000,459.657299
994.409842,-9474.636058,0.000000,919.314598
994.410158,-9770.718434,0.000000,1072.533697
994.410474,-9548.656652,296.082377,1149.143247
994.410790,-9918.759623,518.144159,1225.752797
994.411105,-9770.718434,888.247130,1455.581446
994.411421,-9622.677246,888.247130,1455.581446
994.411737,-10436.903782,444.123565,1455.581446
994.412053,-7476.080014,888.247130,1225.752797
994.412368,-9474.636058,518.144159,842.705048
994.412684,-8956.491898,148.041188,842.705048
994.413000,-9474.636058,0.000000,229.828649
994.413316,-8660.409521,-814.226536,0.000000
994.413631,-7476.080014,-740.205942,-1455.581446
994.413947,-8586.388927,-370.102971,-306.438199
994.414263,-8956.491898,-666.185348,-459.657299
994.414578,-8882.471304,-296.082377,-229.828649
994.414894,-8586.388927,0.000000,76.609550
994.415210,-9252.574275,0.000000,76.609550
994.415526,-9104.533087,148.041188,153.219100
994.415841,-9474.636058,296.082377,76.609550
994.416157,-9400.615463,740.205942,76.609550
994.416473,-9622.677246,740.205942,153.219100
994.416789,-9770.718434,0.000000,459.657299
994.417104,-9548.656652,0.000000,229.828649
994.417420,-8808.450710,-370.102971,229.828649
994.417736,-9474.636058,0.000000,76.609550
994.418052,-9696.697840,-962.267725,0.000000
994.418367,-9178.553681,-370.102971,-383.047749
994.418683,-8808.450710,-296.082377,-459.657299
994.418999,-9326.594869,-740.205942,-383.047749
994.419315,-9474.636058,-962.267725,306.438199
994.419630,-9474.636058,-740.205942,-306.438199
994.419946,-9326.594869,444.123565,76.609550
994.420262,-9622.677246,-148.041188,0.000000
994.420578,-10214.842000,-222.061783,0.000000
994.420893,-9030.512492,370.102971,2068.457845
994.421209,-10066.800811,666.185348,0.000000
994.421525,-10066.800811,740.205942,766.095498
994.421840,-10807.006753,0.000000,766.095498
994.422156,-9918.759623,-296.082377,76.609550
994.422472,-9030.512492,222.061783,76.609550
994.422788,-9844.739029,0.000000,229.828649
994.423103,-10140.821405,-222.061783,612.876398
994.423419,-10066.800811,-148.041188,842.705048
994.423735,-9622.677246,-222.061783,766.095498
994.424051,-10214.842000,-370.102971,766.095498
994.424366,-10214.842000,-518.144159,612.876398
994.424682,-9918.759623,-296.082377,153.219100
994.424998,-9400.615463,148.041188,306.438199
994.425314,-8956.491898,-740.205942,612.876398
994.425629,-9992.780217,-666.185348,383.047749
994.425945,-9474.636058,-444.123565,229.828649
994.426261,-9400.615463,-296.082377,383.047749
994.426577,-9844.739029,-296.082377,383.047749
994.426892,-10066.800811,-296.082377,1149.143247
994.427208,-9696.697840,0.000000,1072.533697
994.427524,-9104.533087,222.061783,536.266849
994.427840,-9474.636058,-222.061783,459.657299
994.428155,-9474.636058,-888.247130,153.219100
994.428471,-9548.656652,-444.123565,536.266849
994.428787,-9252.574275,-740.205942,229.828649
994.429102,-9178.553681,-666.185348,0.000000
994.429418,-9252.574275,-888.247130,-229.828649
994.429734,-8956.491898,-296.082377,-459.657299
994.430050,-8882.471304,-666.185348,-153.219100
994.430365,-9252.574275,-592.164754,306.438199
994.430681,-9548.656652,-666.185348,229.828649
994.430997,-9622.677246,-370.102971,153.219100
994.431313,-9030.512492,-740.205942,229.828649
994.431628,-9178.553681,-222.061783,0.000000
994.431944,-9622.677246,-148.041188,0.000000
994.432260,-9474.636058,0.000000,0.000000
994.432576,-9252.574275,-444.123565,306.438199
994.432891,-8586.388927,-444.123565,0.000000
994.433207,-8956.491898,-666.185348,-536.266849
994.433523,-8956.491898,-592.164754,-689.485948
994.433839,-8586.388927,0.000000,0.000000
994.434154,-8438.347739,0.000000,1225.752797
994.434470,-9104.533087,-370.102971,383.047749
994.434786,-9252.574275,-740.205942,0.000000
994.435102,-9474.636058,-370.102971,306.438199
994.435417,-8956.491898,74.020594,229.828649
994.435733,-9622.677246,0.000000,766.095498
994.436049,-9474.636058,-222.061783,459.657299
994.436364,-9252.574275,-962.267725,0.000000
994.436680,-9252.574275,-222.061783,-306.438199
994.436996,-9548.656652,148.041188,-842.705048
994.437312,-9770.718434,-1036.288319,153.219100
994.437627,-9400.615463,-962.267725,-153.219100
994.437943,-9178.553681,-148.041188,153.219100
994.438259,-9770.718434,-296.082377,612.876398
994.438575,-9918.759623,-296.082377,1072.533697
994.438890,-10214.842000,666.185348,1072.533697
994.439206,-10288.862594,814.226536,1072.533697
994.439522,-10584.944971,592.164754,1302.362347
994.439838,-10584.944971,592.164754,1455.581446
994.440153,-10362.883188,222.061783,1072.533697
994.440469,-9326.594869,296.082377,229.828649
994.440785,-9844.739029,74.020594,76.609550
994.441101,-9992.780217,-592.164754,229.828649
994.441416,-9178.553681,-222.061783,459.657299
994.441732,-9474.636058,-592.164754,-689.485948
994.442048,-9474.636058,0.000000,76.609550
994.442364,-9992.780217,0.000000,459.657299
994.442679,-10214.842000,370.102971,459.657299
994.442995,-9474.636058,1702.473667,919.314598
994.443311,-10066.800811,740.205942,612.876398
994.443626,-10362.883188,1184.329507,1149.143247
994.443942,-10066.800811,666.185348,1072.533697
994.444258,-9474.636058,740.205942,689.485948
994.444574,-9844.739029,0.000000,536.266849
994.444889,-9918.759623,148.041188,689.485948
994.445205,-9474.636058,0.000000,459.657299
994.445521,-9030.512492,74.020594,383.047749
994.445837,-9104.533087,-962.267725,-612.876398
994.446152,-9178.553681,0.000000,-536.266849
994.446468,-9474.636058,0.000000,153.219100
994.446784,-8956.491898,370.102971,229.828649
994.447100,-9548.656652,0.000000,536.266849
994.447415,-9548.656652,444.123565,1072.533697
994.447731,-9992.780217,592.164754,995.924147
994.448047,-9770.718434,740.205942,919.314598
994.448363,-9622.677246,888.247130,919.314598
994.448678,-9696.697840,1036.288319,383.047749
994.448994,-9548.656652,444.123565,612.876398
994.449310,-8734.430116,0.000000,0.000000
994.449626,-8808.450710,-518.144159,-229.828649
994.449941,-8364.327145,-740.205942,-306.438199
994.450257,-8660.409521,-370.102971,-2145.067394
994.450573,-8734.430116,-740.205942,-383.047749
994.450888,-8290.306550,-296.082377,-229.828649
994.451204,-9252.574275,-518.144159,0.000000
994.451520,-8956.491898,148.041188,383.047749
994.451836,-9622.677246,666.185348,153.219100
994.452151,-9548.656652,518.144159,689.485948
994.452467,-9548.656652,1184.329507,1072.533697
994.452783,-9844.739029,666.185348,1302.362347
994.453099,-9474.636058,518.144159,1685.410096
994.453414,-9474.636058,666.185348,1225.752797
994.453730,-9474.636058,222.061783,689.485948
994.454046,-9178.553681,0.000000,306.438199
994.454362,-9252.574275,0.000000,0.000000
994.454677,-8882.471304,148.041188,689.485948
994.454993,-8882.471304,-592.164754,-689.485948
994.455309,-9030.512492,-666.185348,-306.438199
994.455625,-9252.574275,-814.226536,-459.657299
994.455940,-9178.553681,-1036.288319,-229.828649
994.456256,-9474.636058,-444.123565,0.000000
994.456572,-9548.656652,0.000000,229.828649
994.456887,-9844.739029,148.041188,229.828649
994.457203,-9992.780217,370.102971,766.095498
994.457519,-9918.759623,1184.329507,689.485948
994.457835,-10288.862594,518.144159,842.705048
994.458150,-10066.800811,370.102971,1072.533697
994.458466,-10214.842000,444.123565,1072.533697
994.458782,-10214.842000,222.061783,766.095498
994.459098,-9844.739029,-888.247130,383.047749
994.459413,-9992.780217,-370.102971,153.219100
994.459729,-9622.677246,-370.102971,229.828649
994.460045,-9622.677246,-444.123565,-229.828649
994.460361,-9474.636058,-444.123565,766.095498
994.460676,-9696.697840,-444.123565,-306.438199
994.460992,-9474.636058,-222.061783,-229.828649
994.461308,-9696.697840,0.000000,0.000000
994.461624,-9918.759623,0.000000,153.219100
994.461939,-9622.677246,222.061783,766.095498
994.462255,-9918.759623,148.041188,536.266849
994.462571,-9844.739029,370.102971,383.047749
994.462887,-9844.739029,444.123565,153.219100
994.463202,-9918.759623,592.164754,536.266849
994.463518,-9918.759623,222.061783,536.266849
994.463834,-9770.718434,518.144159,689.485948
994.464149,-9844.739029,518.144159,689.485948
994.464465,-9696.697840,370.102971,459.657299
994.464781,-9178.553681,148.041188,2834.553343
994.465097,-9326.594869,0.000000,153.219100
994.465412,-9548.656652,0.000000,306.438199
994.465728,-9400.615463,74.020594,229.828649
994.466044,-9252.574275,222.061783,0.000000
994.466360,-8512.368333,0.000000,612.876398
994.466675,-9252.574275,148.041188,0.000000
994.466991,-9178.553681,-222.061783,0.000000
994.467307,-9104.533087,0.000000,-229.828649
994.467623,-9104.533087,74.020594,0.000000
994.467938,-9400.615463,222.061783,153.219100
994.468254,-9622.677246,74.020594,459.657299
994.468570,-9178.553681,74.020594,536.266849
994.468886,-9400.615463,148.041188,536.266849
994.469201,-9622.677246,222.061783,842.705048
994.469517,-9474.636058,74.020594,842.705048
994.469833,-9252.574275,0.000000,766.095498
994.470149,-9104.533087,-222.061783,229.828649
994.470464,-9178.553681,-518.144159,459.657299
994.470780,-9178.553681,-1110.308913,-536.266849
994.471096,-8882.471304,-740.205942,153.219100
994.471412,-8882.471304,-592.164754,229.828649
994.471727,-9030.512492,-370.102971,0.000000
994.472043,-9474.636058,-814.226536,689.485948
994.472359,-8808.450710,-222.061783,383.047749
994.472675,-9030.512492,-222.061783,995.924147
994.472990,-9030.512492,-592.164754,689.485948
994.473306,-9252.574275,-592.164754,766.095498
994.473622,-9252.574275,-962.267725,229.828649
994.473937,-8808.450710,-1332.370696,306.438199
994.474253,-8734.430116,-1850.514855,-229.828649
994.474569,-9104.533087,-1776.494261,-459.657299
994.474885,-8956.491898,-2146.597232,0.000000
994.475200,-9104.533087,-1850.514855,-2451.505594
994.475516,-9030.512492,-2368.659014,-842.705048
994.475832,-9178.553681,-2146.597232,-995.924147
994.476148,-9400.615463,-2220.617826,-1149.143247
994.476463,-9918.759623,-1776.494261,-536.266849
994.476779,-10214.842000,-518.144159,383.047749
994.477095,-10140.821405,-444.123565,766.095498
994.477411,-10510.924376,148.041188,1225.752797
994.477726,-10955.047942,296.082377,1072.533697
994.478042,-9918.759623,-296.082377,459.657299
994.478358,-10362.883188,-518.144159,-459.657299
994.478674,-10362.883188,0.000000,-459.657299
994.478989,-10214.842000,-814.226536,-995.924147
994.479305,-9400.615463,-1036.288319,-1455.581446
994.479621,-9326.594869,-1776.494261,-1915.238745
994.479937,-9178.553681,-1480.411884,-1915.238745
994.480252,-9252.574275,-1702.473667,-2068.457845
994.480568,-9178.553681,-1406.391290,-2145.067394
994.480884,-9104.533087,-1184.329507,-1762.019645
994.481200,-9474.636058,-888.247130,-1915.238745
994.481515,-10140.821405,-296.082377,-1149.143247
994.481831,-10214.842000,148.041188,-153.219100
994.482147,-10436.903782,518.144159,-229.828649
994.482463,-11251.130318,888.247130,-153.219100
994.482778,-10955.047942,962.267725,459.657299
994.483094,-10732.986159,740.205942,766.095498
994.483410,-10140.821405,222.061783,229.828649
994.483726,-9992.780217,74.020594,-306.438199
994.484041,-9548.656652,-814.226536,76.609550
994.484357,-9770.718434,-666.185348,-459.657299
994.484673,-9178.553681,-1184.329507,-919.314598
994.484988,-9104.533087,-1258.350101,-766.095498
994.485304,-9030.512492,-2368.659014,1455.581446
994.485620,-9548.656652,-1036.288319,-612.876398
994.485936,-9252.574275,-1036.288319,-383.047749
994.486251,-9178.553681,-814.226536,-536.266849
994.486567,-9474.636058,-296.082377,-229.828649
994.486883,-9400.615463,148.041188,306.438199
994.487199,-9474.636058,74.020594,306.438199
994.487514,-9326.594869,-148.041188,459.657299
994.487830,-9326.594869,-296.082377,536.266849
994.488146,-9104.533087,-666.185348,612.876398
994.488462,-8586.388927,-962.267725,689.485948
994.488777,-8660.409521,-962.267725,383.047749
994.489093,-8882.471304,-1110.308913,306.438199
994.489409,-8586.388927,-1184.329507,229.828649
994.489725,-8586.388927,-888.247130,153.219100
994.490040,-8586.388927,-962.267725,306.438199
994.490356,-8956.491898,-666.185348,306.438199
994.490672,-9326.594869,-370.102971,536.266849
994.490988,-9400.615463,-296.082377,919.314598
994.491303,-9252.574275,148.041188,1915.238745
994.491619,-9178.553681,0.000000,1149.143247
994.491935,-9252.574275,74.020594,459.657299
994.492251,-9252.574275,0.000000,383.047749
994.492566,-9030.512492,-222.061783,153.219100
994.492882,-8956.491898,-370.102971,0.000000
994.493198,-9104.533087,-962.267725,-612.876398
994.493514,-8956.491898,-1110.308913,-766.095498
994.493829,-8882.471304,-1184.329507,-766.095498
994.494145,-9326.594869,-1110.308913,-842.705048
994.494461,-9326.594869,-1406.391290,-612.876398
994.494777,-9474.636058,-1258.350101,-1072.533697
994.495092,-9696.697840,-740.205942,-612.876398
994.495408,-9918.759623,-888.247130,-536.266849
994.495724,-9918.759623,-1036.288319,-1302.362347
994.496040,-10066.800811,-370.102971,-459.657299
994.496355,-10140.821405,-296.082377,0.000000
994.496671,-10362.883188,148.041188,76.609550
994.496987,-10288.862594,0.000000,-229.828649
994.497302,-9918.759623,-148.041188,-1149.143247
994.497618,-10214.842000,0.000000,-842.705048
994.497934,-9918.759623,-740.205942,-1149.143247
994.498250,-9622.677246,-814.226536,-842.705048
994.498565,-9252.574275,0.000000,-459.657299
994.498881,-9918.759623,-1406.391290,-1532.190996
994.499197,-9622.677246,-518.144159,-1608.800546
994.499513,-9474.636058,-962.267725,-1838.629195
994.499828,-9844.739029,-740.205942,-1608.800546
994.500144,-9696.697840,-222.061783,0.000000
994.500460,-10214.842000,-370.102971,-1225.752797
994.500776,-9918.759623,-222.061783,-612.876398
994.501091,-9992.780217,0.000000,-306.438199
994.501407,-10288.862594,-296.082377,-153.219100
994.501723,-9696.697840,814.226536,-383.047749
994.502039,-10362.883188,-296.082377,383.047749
994.502354,-9622.677246,0.000000,383.047749
994.502670,-10066.800811,-518.144159,153.219100
994.502986,-8882.471304,-1258.350101,-1225.752797
994.503302,-9474.636058,-814.226536,-536.266849
994.503617,-9474.636058,-1406.391290,-995.924147
994.503933,-9030.512492,-1332.370696,-689.485948
994.504249,-9326.594869,-1628.453072,-919.314598
994.504565,-9326.594869,-888.247130,612.876398
994.504880,-9252.574275,-962.267725,0.000000
994.505196,-9474.636058,-888.247130,229.828649
994.505512,-9400.615463,-592.164754,383.047749
994.505828,-9622.677246,0.000000,842.705048
994.506143,-10140.821405,0.000000,-383.047749
994.506459,-9400.615463,-296.082377,766.095498
994.506775,-9770.718434,-296.082377,1149.143247
994.507091,-9474.636058,-740.205942,842.705048
994.507406,-9400.615463,-1110.308913,1685.410096
994.507722,-9326.594869,-740.205942,306.438199
994.508038,-9104.533087,-1332.370696,229.828649
994.508354,-8882.471304,-1702.473667,-229.828649
994.508669,-8586.388927,-1924.535449,-612.876398
994.508985,-8586.388927,-962.267725,306.438199
994.509301,-8956.491898,-1036.288319,-229.828649
994.509616,-9178.553681,-1332.370696,0.000000
994.509932,-9104.533087,-962.267725,0.000000
994.510248,-8734.430116,0.000000,229.828649
994.510564,-9400.615463,962.267725,1149.143247
994.510879,-9696.697840,148.041188,919.314598
994.511195,-9326.594869,0.000000,0.000000
994.511511,-9104.533087,148.041188,0.000000
994.511827,-8956.491898,74.020594,1302.362347
994.512142,-9844.739029,222.061783,0.000000
994.512458,-9178.553681,-370.102971,0.000000
994.512774,-9104.533087,-592.164754,-612.876398
994.513090,-9400.615463,-592.164754,-842.705048
994.513405,-8956.491898,-592.164754,-1302.362347
994.513721,-9178.553681,-888.247130,-995.924147
994.514037,-8956.491898,-888.247130,-1378.971896
994.514353,-9178.553681,-814.226536,-1838.629195
994.514668,-9474.636058,-814.226536,-1302.362347
994.514984,-9400.615463,-370.102971,-766.095498
994.515300,-9696.697840,296.082377,-306.438199
994.515616,-10140.821405,74.020594,383.047749
994.515931,-10807.006753,74.020594,612.876398
994.516247,-10732.986159,888.247130,766.095498
994.516563,-9178.553681,888.247130,919.314598
994.516879,-9918.759623,518.144159,229.828649
994.517194,-9992.780217,0.000000,-153.219100
994.517510,-9844.739029,-518.144159,-536.266849
994.517826,-8956.491898,-222.061783,-995.924147
994.518142,-9252.574275,-1480.411884,-1685.410096
994.518457,-9252.574275,-1628.453072,-1685.410096
994.518773,-9178.553681,-1998.556043,-1762.019645
994.519089,-9104.533087,-1850.514855,-2068.457845
994.519405,-8734.430116,-1480.411884,-1991.848295
994.519720,-9622.677246,-740.205942,-766.095498
994.520036,-9992.780217,-370.102971,-153.219100
994.520352,-10584.944971,296.082377,612.876398
994.520668,-10732.986159,962.267725,1225.752797
994.520983,-10955.047942,1184.329507,1915.238745
994.521299,-11103.089130,1332.370696,2451.505594
994.521615,-10732.986159,1258.350101,2068.457845
994.521930,-10066.800811,222.061783,1072.533697
994.522246,-9622.677246,74.020594,-306.438199
994.522562,-8956.491898,-1110.308913,-995.924147
994.522878,-8290.306550,-1332.370696,-1532.190996
994.523193,-8142.265362,-1850.514855,-1915.238745
994.523509,-8364.327145,-2368.659014,-1762.019645
994.523825,-8216.285956,-2368.659014,-1225.752797
994.524141,-8438.347739,-1628.453072,-1685.410096
994.524456,-8956.491898,-518.144159,-383.047749
994.524772,-9474.636058,0.000000,229.828649
994.525088,-10436.903782,148.041188,842.705048
994.525404,-10140.821405,814.226536,1532.190996
994.525719,-10510.924376,1036.288319,1838.629195
994.526035,-10955.047942,1184.329507,2451.505594
994.526351,-11029.068536,444.123565,1991.848295
994.526667,-9474.636058,0.000000,1838.629195
994.526982,-9326.594869,0.000000,842.705048
994.527298,-8956.491898,-1480.411884,0.000000
994.527614,-8364.327145,-2220.617826,-612.876398
994.527930,-8142.265362,-2516.700203,-1532.190996
994.528245,-7994.224174,-2664.741391,-1685.410096
994.528561,-7698.141797,-2664.741391,-1991.848295
994.528877,-8808.450710,-2220.617826,-1532.190996
994.529193,-8512.368333,-1554.432478,-1149.143247
994.529508,-8956.491898,-740.205942,-306.438199
994.529824,-9992.780217,-518.144159,0.000000
994.530140,-10066.800811,296.082377,766.095498
994.530456,-10066.800811,814.226536,1149.143247
994.530771,-10288.862594,814.226536,995.924147
994.531087,-11251.130318,1406.391290,1991.848295
994.531403,-10140.821405,222.061783,919.314598
994.531719,-9474.636058,148.041188,153.219100
994.532034,-8734.430116,-962.267725,-383.047749
994.532350,-9030.512492,-1480.411884,-1072.533697
994.532666,-9400.615463,-1332.370696,-919.314598
994.532981,-8438.347739,-1776.494261,-1608.800546
994.533297,-7994.224174,-1850.514855,-2068.457845
994.533613,-9104.533087,-1702.473667,-1532.190996
994.533929,-8882.471304,-444.123565,-1762.019645
994.534244,-9622.677246,-444.123565,-766.095498
994.534560,-9622.677246,222.061783,153.219100
994.534876,-10214.842000,444.123565,0.000000
994.535192,-10510.924376,814.226536,689.485948
994.535507,-11399.171507,1480.411884,842.705048
994.535823,-10066.800811,518.144159,383.047749
994.536139,-10362.883188,740.205942,153.219100
994.536455,-9918.759623,-148.041188,-229.828649
994.536770,-9918.759623,-740.205942,842.705048
994.537086,-8956.491898,-1184.329507,-766.095498
994.537402,-9326.594869,-1998.556043,-1149.143247
994.537718,-9104.533087,-1480.411884,-1378.971896
994.538033,-9548.656652,-1776.494261,-995.924147
994.538349,-9474.636058,-1184.329507,-1838.629195
994.538665,-9400.615463,-518.144159,0.000000
994.538981,-10510.924376,-296.082377,0.000000
994.539296,-9918.759623,296.082377,842.705048
994.539612,-10732.986159,518.144159,689.485948
994.539928,-10881.027347,518.144159,689.485948
994.540244,-10288.862594,666.185348,459.657299
994.540559,-10288.862594,0.000000,306.438199
994.540875,-9548.656652,0.000000,0.000000
994.541191,-9474.636058,148.041188,-306.438199
994.541507,-9696.697840,-1258.350101,-842.705048
994.541822,-8808.450710,-1332.370696,-1225.752797
994.542138,-8808.450710,-1998.556043,-1072.533697
994.542454,-8512.368333,-1850.514855,-995.924147
994.542770,-8438.347739,-2220.617826,-612.876398
994.543085,-9178.553681,-1850.514855,-689.485948
994.543401,-9252.574275,-1036.288319,-153.219100
994.543717,-9474.636058,-592.164754,0.000000
994.544033,-9548.656652,-148.041188,153.219100
994.544348,-9696.697840,-296.082377,459.657299
994.544664,-9992.780217,0.000000,459.657299
994.544980,-9474.636058,0.000000,383.047749
994.545295,-9474.636058,-370.102971,536.266849
994.545611,-9400.615463,-814.226536,229.828649
994.545927,-9326.594869,-1258.350101,76.609550
994.546243,-8586.388927,-1702.473667,-612.876398
994.546558,-8660.409521,-1776.494261,-612.876398
994.546874,-8660.409521,-2072.576638,-842.705048
994.547190,-8142.265362,-1998.556043,229.828649
994.547506,-8734.430116,-2368.659014,-995.924147
994.547821,-8734.430116,-2368.659014,-842.705048
994.548137,-8956.491898,-1258.350101,-536.266849
994.548453,-9326.594869,-1036.288319,0.000000
994.548769,-9548.656652,-666.185348,0.000000
994.549084,-9548.656652,-518.144159,306.438199
994.549400,-9770.718434,-444.123565,459.657299
994.549716,-9548.656652,-444.123565,0.000000
994.550032,-9770.718434,-592.164754,-306.438199
994.550347,-9178.553681,-740.205942,-306.438199
994.550663,-9548.656652,-962.267725,-689.485948
994.550979,-9474.636058,-1554.432478,-995.924147
994.551295,-9178.553681,-1702.473667,-1149.143247
994.551610,-8882.471304,-1628.453072,-1685.410096
994.551926,-9252.574275,-1998.556043,-842.705048
994.552242,-9474.636058,-1554.432478,-306.438199
994.552558,-9622.677246,-1184.329507,-383.047749
994.552873,-9696.697840,-666.185348,-383.047749
994.553189,-9992.780217,-370.102971,306.438199
994.553505,-10436.903782,0.000000,306.438199
994.553821,-10362.883188,0.000000,229.828649
994.554136,-10362.883188,222.061783,229.828649
994.554452,-11399.171507,74.020594,-1149.143247
994.554768,-10140.821405,-370.102971,-459.657299
994.555084,-9548.656652,-888.247130,-306.438199
994.555399,-9400.615463,-1110.308913,-919.314598
994.555715,-9326.594869,-1332.370696,-1302.362347
994.556031,-9030.512492,-1554.432478,-995.924147
994.556347,-9474.636058,-1184.329507,-919.314598
994.556662,-9474.636058,-1110.308913,-842.705048
994.556978,-9696.697840,-518.144159,-459.657299
994.557294,-10066.800811,0.000000,0.000000
994.557609,-10436.903782,518.144159,842.705048
994.557925,-10362.883188,814.226536,1072.533697
994.558241,-10362.883188,1184.329507,919.314598
994.558557,-10066.800811,740.205942,919.314598
994.558872,-8808.450710,0.000000,536.266849
994.559188,-9474.636058,-296.082377,-459.657299
994.559504,-9104.533087,-666.185348,-689.485948
994.559820,-8586.388927,-1480.411884,-1225.752797
994.560135,-8438.347739,-2146.597232,-2145.067394
994.560451,-8956.491898,-2072.576638,-1608.800546
994.560767,-8438.347739,-2072.576638,-1685.410096
994.561083,-8586.388927,-1332.370696,-1302.362347
994.561398,-9104.533087,-1184.329507,-383.047749
994.561714,-9474.636058,-814.226536,-1532.190996
994.562030,-9770.718434,-148.041188,76.609550
994.562346,-9844.739029,0.000000,612.876398
994.562661,-10140.821405,74.020594,1225.752797
994.562977,-9918.759623,148.041188,766.095498
994.563293,-9548.656652,-296.082377,229.828649
994.563609,-9178.553681,-370.102971,0.000000
994.563924,-9400.615463,-962.267725,0.000000
994.564240,-9178.553681,-1036.288319,0.000000
994.564556,-8956.491898,-1332.370696,-76.609550
994.564872,-8882.471304,-1406.391290,-306.438199
994.565187,-9104.533087,-740.205942,153.219100
994.565503,-9104.533087,-370.102971,612.876398
994.565819,-9400.615463,0.000000,919.314598
994.566135,-8512.368333,444.123565,1302.362347
994.566450,-9770.718434,518.144159,919.314598
994.566766,-9696.697840,888.247130,1378.971896
994.567082,-9622.677246,592.164754,1378.971896
994.567398,-9622.677246,518.144159,1225.752797
994.567713,-9178.553681,814.226536,0.000000
994.568029,-9474.636058,148.041188,459.657299
994.568345,-9104.533087,-444.123565,459.657299
994.568661,-9030.512492,-370.102971,459.657299
994.568976,-8956.491898,0.000000,76.609550
994.569292,-9104.533087,-740.205942,842.705048
994.569608,-9474.636058,222.061783,919.314598
994.569924,-9696.697840,444.123565,1072.533697
994.570239,-10066.800811,1110.308913,1302.362347
994.570555,-10881.027347,1924.535449,2911.162892
994.570871,-10510.924376,1480.411884,1532.190996
994.571187,-10288.862594,1554.432478,1762.019645
994.571502,-10214.842000,1258.350101,1455.581446
994.571818,-10140.821405,1036.288319,1302.362347
994.572134,-9326.594869,592.164754,1072.533697
994.572450,-9622.677246,370.102971,459.657299
994.572766,-9474.636058,0.000000,0.000000
994.573081,-9104.533087,-518.144159,0.000000
994.573397,-8882.471304,-592.164754,1149.143247
994.573713,-9178.553681,-888.247130,-153.219100
994.574029,-9030.512492,-666.185348,-306.438199
994.574345,-9474.636058,-518.144159,-459.657299
994.574660,-9548.656652,-148.041188,0.000000
994.574976,-10214.842000,296.082377,153.219100
994.575292,-9770.718434,518.144159,536.266849
994.575608,-10066.800811,518.144159,1072.533697
994.575923,-9918.759623,518.144159,919.314598
994.576239,-9770.718434,370.102971,459.657299
994.576555,-10288.862594,518.144159,536.266849
994.576871,-9474.636058,0.000000,0.000000
994.577187,-9474.636058,-222.061783,0.000000
994.577502,-9400.615463,-444.123565,-689.485948
994.577818,-8956.491898,444.123565,76.609550
994.578134,-9030.512492,-740.205942,-536.266849
994.578450,-8882.471304,-814.226536,-766.095498
994.578765,-9030.512492,-370.102971,-766.095498
994.579081,-9252.574275,-222.061783,-383.047749
994.579397,-9548.656652,666.185348,-306.438199
994.579713,-9474.636058,0.000000,0.000000
994.580029,-9474.636058,0.000000,0.000000
994.580344,-9696.697840,370.102971,459.657299
994.580660,-9770.718434,222.061783,459.657299
994.580976,-9548.656652,-296.082377,229.828649
994.581292,-9474.636058,74.020594,153.219100
994.581608,-9474.636058,0.000000,153.219100
994.581923,-9400.615463,-444.123565,0.000000
994.582239,-9326.594869,-814.226536,0.000000
994.582555,-9178.553681,-666.185348,-229.828649
994.582871,-9178.553681,-1110.308913,0.000000
994.583186,-9548.656652,-814.226536,0.000000
994.583502,-9696.697840,-592.164754,306.438199
994.583818,-9622.677246,-370.102971,229.828649
994.584134,-9474.636058,0.000000,536.266849
994.584450,-10066.800811,222.061783,612.876398
994.584765,-10140.821405,370.102971,995.924147
994.585081,-9992.780217,296.082377,1072.533697
994.585397,-10066.800811,814.226536,1149.143247
994.585713,-9992.780217,296.082377,766.095498
994.586028,-9992.780217,222.061783,919.314598
994.586344,-9844.739029,444.123565,1149.143247
994.586660,-9696.697840,-148.041188,536.266849
994.586976,-9474.636058,74.020594,1072.533697
994.587292,-9622.677246,0.000000,842.705048
994.587607,-9548.656652,0.000000,1072.533697
994.587923,-9326.594869,0.000000,612.876398
994.588239,-8734.430116,-1110.308913,0.000000
994.588555,-9178.553681,222.061783,383.047749
994.588871,-9548.656652,296.082377,689.485948
994.589186,-9622.677246,0.000000,536.266849
994.589502,-9104.533087,518.144159,459.657299
994.589818,-9918.759623,296.082377,612.876398
994.590134,-9400.615463,666.185348,1149.143247
994.590449,-10140.821405,592.164754,1072.533697
994.590765,-9474.636058,814.226536,842.705048
994.591081,-9622.677246,740.205942,1991.848295
994.591397,-9548.656652,592.164754,536.266849
994.591713,-9474.636058,0.000000,459.657299
994.592028,-9474.636058,148.041188,383.047749
994.592344,-9104.533087,0.000000,229.828649
