#time,accel_x,accel_y,accel_z
1122.917833,-9474.636058,-148.041188,383.047749
1122.918149,-9252.574275,-296.082377,306.438199
1122.918464,-9696.697840,-370.102971,0.000000
1122.918780,-9622.677246,-296.082377,0.000000
1122.919096,-9474.636058,-444.123565,153.219100
1122.919412,-9474.636058,-296.082377,-612.876398
1122.919727,-9548.656652,-296.082377,-766.095498
1122.920043,-9474.636058,-444.123565,-153.219100
1122.920359,-9474.636058,-296.082377,-76.609550
1122.920675,-9474.636058,-370.102971,0.000000
1122.920991,-9548.656652,0.000000,3370.820191
1122.921306,-9548.656652,-444.123565,76.609550
1122.921622,-9400.615463,-444.123565,0.000000
1122.921938,-9474.636058,-518.144159,-229.828649
1122.922254,-9474.636058,-444.123565,0.000000
1122.922570,-9696.697840,-370.102971,153.219100
1122.922885,-9548.656652,-296.082377,153.219100
1122.923201,-9548.656652,-370.102971,0.000000
1122.923517,-9474.636058,-370.102971,0.000000
1122.923833,-9400.615463,-592.164754,-306.438199
1122.924149,-9474.636058,-296.082377,0.000000
1122.924464,-9474.636058,0.000000,153.219100
1122.924780,-9548.656652,-370.102971,76.609550
1122.925096,-9474.636058,-296.082377,0.000000
1122.925412,-9918.759623,-592.164754,-306.438199
1122.925728,-9474.636058,-888.247130,-459.657299
1122.926043,-9252.574275,-518.144159,-766.095498
1122.926359,-9326.594869,296.082377,-383.047749
1122.926675,-9622.677246,222.061783,0.000000
1122.926991,-9992.780217,444.123565,76.609550
1122.927307,-9548.656652,-592.164754,0.000000
1122.927622,-9474.636058,-370.102971,-459.657299
1122.927938,-9622.677246,370.102971,-153.219100
1122.928254,-10140.821405,592.164754,995.924147
1122.928570,-9770.718434,-222.061783,536.266849
1122.928886,-9326.594869,-888.247130,-306.438199
1122.929201,-9030.512492,-962.267725,-766.095498
1122.929517,-9548.656652,148.041188,-229.828649
1122.929833,-9696.697840,-740.205942,383.047749
1122.930149,-9178.553681,-1332.370696,-842.705048
1122.930465,-8438.347739,-740.205942,-1532.190996
1122.930780,-9326.594869,222.061783,-1455.581446
1122.931096,-9696.697840,74.020594,-76.609550
1122.931412,-9844.739029,-370.102971,0.000000
1122.931728,-9178.553681,148.041188,-306.438199
1122.932044,-9992.780217,-222.061783,-306.438199
1122.932359,-10362.883188,518.144159,306.438199
1122.932675,-9992.780217,-296.082377,766.095498
1122.932991,-9400.615463,0.000000,689.485948
1122.933307,-9178.553681,-592.164754,-306.438199
1122.933623,-9770.718434,-814.226536,-306.438199
1122.933938,-9474.636058,-888.247130,-229.828649
1122.934254,-9326.594869,-444.123565,-536.266849
1122.934570,-9252.574275,-370.102971,-766.095498
1122.934886,-9252.574275,-296.082377,-995.924147
1122.935202,-9548.656652,-370.102971,-842.705048
1122.935517,-9252.574275,370.102971,-383.047749
1122.935833,-9030.512492,296.082377,-612.876398
1122.936149,-9918.759623,222.061783,-536.266849
1122.936465,-9696.697840,444.123565,-229.828649
1122.936781,-9770.718434,666.185348,229.828649
1122.937096,-9030.512492,592.164754,-229.828649
1122.937412,-9622.677246,0.000000,76.609550
1122.937728,-9992.780217,74.020594,459.657299
1122.938044,-9252.574275,-518.144159,0.000000
1122.938360,-9474.636058,518.144159,-383.047749
1122.938675,-9400.615463,-666.185348,0.000000
1122.938991,-9770.718434,-148.041188,-153.219100
1122.939307,-9030.512492,-296.082377,-383.047749
1122.939623,-9770.718434,-444.123565,-536.266849
1122.939939,-8956.491898,444.123565,-1149.143247
1122.940254,-9770.718434,148.041188,-306.438199
1122.940570,-9474.636058,148.041188,-306.438199
1122.940886,-9918.759623,296.082377,-306.438199
1122.941202,-8956.491898,148.041188,229.828649
1122.941518,-9770.718434,370.102971,-229.828649
1122.941833,-9474.636058,444.123565,0.000000
1122.942149,-9696.697840,0.000000,0.000000
1122.942465,-9030.512492,74.020594,-306.438199
1122.942781,-9474.636058,148.041188,-229.828649
1122.943096,-9548.656652,-222.061783,0.000000
1122.943412,-9326.594869,0.000000,0.000000
1122.943728,-9252.574275,-444.123565,-459.657299
1122.944044,-9474.636058,0.000000,-459.657299
1122.944360,-9474.636058,-666.185348,-766.095498
1122.944675,-9844.739029,0.000000,-306.438199
1122.944991,-9030.512492,148.041188,-383.047749
1122.945307,-9696.697840,-370.102971,-842.705048
1122.945623,-9178.553681,222.061783,-306.438199
1122.945939,-9992.780217,666.185348,-229.828649
1122.946254,-9622.677246,0.000000,0.000000
1122.946570,-9252.574275,0.000000,-383.047749
1122.946886,-9622.677246,-444.123565,-306.438199
1122.947202,-8734.430116,0.000000,842.705048
1122.947518,-9252.574275,814.226536,-459.657299
1122.947833,-9400.615463,740.205942,-383.047749
1122.948149,-9474.636058,518.144159,-536.266849
1122.948465,-9400.615463,888.247130,-919.314598
1122.948781,-9104.533087,0.000000,-383.047749
1122.949097,-9770.718434,-592.164754,-766.095498
1122.949412,-9770.718434,-518.144159,-459.657299
1122.949728,-9474.636058,0.000000,-229.828649
1122.950044,-9770.718434,74.020594,689.485948
1122.950360,-10066.800811,814.226536,229.828649
1122.950676,-9992.780217,888.247130,383.047749
1122.950991,-9918.759623,1406.391290,153.219100
1122.951307,-9992.780217,1480.411884,536.266849
1122.951623,-10584.944971,1554.432478,1072.533697
1122.951939,-10362.883188,1036.288319,612.876398
1122.952255,-10066.800811,222.061783,612.876398
1122.952570,-9622.677246,-148.041188,0.000000
1122.952886,-9474.636058,0.000000,612.876398
1122.953202,-9474.636058,-148.041188,229.828649
1122.953518,-9030.512492,-444.123565,-153.219100
1122.953834,-8808.450710,-296.082377,-766.095498
1122.954149,-9030.512492,-296.082377,-536.266849
1122.954465,-8734.430116,-296.082377,-766.095498
1122.954781,-9400.615463,0.000000,-229.828649
1122.955097,-9474.636058,0.000000,-229.828649
1122.955413,-9770.718434,-148.041188,153.219100
1122.955728,-9326.594869,518.144159,536.266849
1122.956044,-9770.718434,222.061783,766.095498
1122.956360,-9844.739029,370.102971,995.924147
1122.956676,-9770.718434,740.205942,919.314598
1122.956992,-9622.677246,740.205942,1072.533697
1122.957307,-9474.636058,740.205942,-1608.800546
1122.957623,-9474.636058,370.102971,536.266849
1122.957939,-9104.533087,-370.102971,689.485948
1122.958255,-9252.574275,-962.267725,612.876398
1122.958571,-9104.533087,-1480.411884,-612.876398
1122.958886,-8586.388927,-1406.391290,0.000000
1122.959202,-8956.491898,-1480.411884,76.609550
1122.959518,-9030.512492,-1554.432478,0.000000
1122.959834,-8734.430116,-1258.350101,0.000000
1122.960150,-9400.615463,-962.267725,153.219100
1122.960465,-9252.574275,-740.205942,0.000000
1122.960781,-9400.615463,-592.164754,229.828649
1122.961097,-9548.656652,-370.102971,459.657299
1122.961413,-9844.739029,0.000000,459.657299
1122.961729,-10436.903782,592.164754,1915.238745
1122.962044,-10066.800811,592.164754,1149.143247
1122.962360,-10066.800811,962.267725,919.314598
1122.962676,-9992.780217,888.247130,1225.752797
1122.962992,-10140.821405,1036.288319,383.047749
1122.963308,-10066.800811,666.185348,1378.971896
1122.963623,-10066.800811,370.102971,1072.533697
1122.963939,-9918.759623,148.041188,536.266849
1122.964255,-9400.615463,-222.061783,536.266849
1122.964571,-9992.780217,148.041188,0.000000
1122.964887,-9326.594869,-740.205942,0.000000
1122.965202,-9178.553681,-740.205942,-229.828649
1122.965518,-9178.553681,-740.205942,-153.219100
1122.965834,-9548.656652,-814.226536,0.000000
1122.966150,-9474.636058,-518.144159,-536.266849
1122.966465,-9326.594869,-888.247130,0.000000
1122.966781,-9326.594869,-740.205942,-153.219100
1122.967097,-9474.636058,-888.247130,0.000000
1122.967413,-9178.553681,-962.267725,-536.266849
1122.967729,-9252.574275,-888.247130,383.047749
1122.968044,-9326.594869,-1110.308913,306.438199
1122.968360,-9252.574275,-1406.391290,153.219100
1122.968676,-9030.512492,-1110.308913,306.438199
1122.968992,-9474.636058,-1628.453072,0.000000
1122.969308,-9104.533087,-1332.370696,0.000000
1122.969623,-9178.553681,-1998.556043,0.000000
1122.969939,-8882.471304,-2368.659014,0.000000
1122.970255,-9770.718434,-1776.494261,-306.438199
1122.970571,-8956.491898,-2516.700203,-689.485948
1122.970887,-8734.430116,-1850.514855,-766.095498
1122.971202,-8882.471304,-2886.803174,-536.266849
1122.971518,-9030.512492,-2368.659014,-689.485948
1122.971834,-9252.574275,-1776.494261,-306.438199
1122.972150,-9770.718434,-1998.556043,76.609550
1122.972466,-9770.718434,-2072.576638,306.438199
1122.972781,-9770.718434,-2146.597232,306.438199
1122.973097,-9474.636058,-2368.659014,383.047749
1122.973413,-10066.800811,-1850.514855,689.485948
1122.973729,-9918.759623,-2146.597232,842.705048
1122.974045,-10066.800811,-1850.514855,689.485948
1122.974360,-9474.636058,-1036.288319,536.266849
1122.974676,-10955.047942,-222.061783,536.266849
1122.974992,-10140.821405,148.041188,536.266849
1122.975308,-10214.842000,-222.061783,459.657299
1122.975624,-9770.718434,666.185348,383.047749
1122.975939,-10510.924376,296.082377,153.219100
1122.976255,-10807.006753,296.082377,766.095498
1122.976571,-10066.800811,592.164754,383.047749
1122.976887,-10214.842000,518.144159,612.876398
1122.977203,-10140.821405,518.144159,689.485948
1122.977518,-9844.739029,370.102971,1225.752797
1122.977834,-10214.842000,592.164754,842.705048
1122.978150,-9622.677246,0.000000,612.876398
1122.978466,-9770.718434,0.000000,689.485948
1122.978782,-10066.800811,-296.082377,383.047749
1122.979097,-10955.047942,444.123565,76.609550
1122.979413,-8660.409521,-888.247130,-153.219100
1122.979729,-9030.512492,-518.144159,0.000000
1122.980045,-9400.615463,-1184.329507,-153.219100
1122.980361,-9326.594869,-1258.350101,-842.705048
1122.980676,-8808.450710,0.000000,0.000000
1122.980992,-9326.594869,518.144159,689.485948
1122.981308,-9770.718434,0.000000,766.095498
1122.981624,-9770.718434,-444.123565,689.485948
1122.981940,-8808.450710,592.164754,1072.533697
1122.982255,-9326.594869,888.247130,1302.362347
1122.982571,-10214.842000,-518.144159,1608.800546
1122.982887,-9252.574275,-962.267725,995.924147
1122.983203,-7920.203579,-962.267725,459.657299
1122.983519,-8586.388927,-444.123565,229.828649
1122.983834,-9326.594869,-962.267725,383.047749
1122.984150,-8956.491898,-1702.473667,306.438199
1122.984466,-7402.059420,-2368.659014,-612.876398
1122.984782,-7846.182985,-888.247130,-1608.800546
1122.985098,-8734.430116,-1036.288319,-842.705048
1122.985413,-9178.553681,-666.185348,0.000000
1122.985729,-8586.388927,-814.226536,0.000000
1122.986045,-9030.512492,-814.226536,-459.657299
1122.986361,-9622.677246,0.000000,459.657299
1122.986677,-10362.883188,-740.205942,995.924147
1122.986992,-9474.636058,-962.267725,459.657299
1122.987308,-8660.409521,-888.247130,0.000000
1122.987624,-9400.615463,-592.164754,76.609550
1122.987940,-10066.800811,-740.205942,0.000000
1122.988256,-9474.636058,-888.247130,153.219100
1122.988571,-8808.450710,-1036.288319,0.000000
1122.988887,-9622.677246,-1036.288319,-153.219100
1122.989203,-10584.944971,-592.164754,-153.219100
1122.989519,-9844.739029,-370.102971,229.828649
1122.989834,-9400.615463,-518.144159,689.485948
1122.990150,-9918.759623,-888.247130,153.219100
1122.990466,-10510.924376,-962.267725,0.000000
1122.990782,-10214.842000,-740.205942,76.609550
1122.991098,-9696.697840,-666.185348,229.828649
1122.991413,-9474.636058,-592.164754,0.000000
1122.991729,-9992.780217,-222.061783,-229.828649
1122.992045,-10066.800811,-148.041188,-306.438199
1122.992361,-9844.739029,-370.102971,76.609550
1122.992677,-9696.697840,74.020594,-153.219100
1122.992992,-10436.903782,296.082377,153.219100
1122.993308,-10881.027347,370.102971,383.047749
1122.993624,-10362.883188,296.082377,229.828649
1122.993940,-9918.759623,666.185348,766.095498
1122.994256,-10362.883188,444.123565,306.438199
1122.994571,-10510.924376,444.123565,612.876398
1122.994887,-9104.533087,0.000000,0.000000
1122.995203,-9844.739029,222.061783,0.000000
1122.995519,-9696.697840,0.000000,229.828649
1122.995834,-9918.759623,0.000000,383.047749
1122.996150,-9844.739029,-148.041188,153.219100
1122.996466,-10584.944971,888.247130,0.000000
1122.996782,-9844.739029,-296.082377,153.219100
1122.997098,-9992.780217,-444.123565,536.266849
1122.997413,-10066.800811,-814.226536,306.438199
1122.997729,-9252.574275,-1480.411884,536.266849
1122.998045,-8882.471304,-666.185348,0.000000
1122.998361,-9474.636058,-518.144159,76.609550
1122.998676,-9474.636058,-888.247130,306.438199
1122.998992,-8586.388927,-1406.391290,-229.828649
1122.999308,-8438.347739,222.061783,-1149.143247
1122.999624,-8882.471304,-592.164754,-536.266849
1122.999940,-9326.594869,-296.082377,0.000000
1123.000255,-8734.430116,-296.082377,153.219100
1123.000571,-8734.430116,-296.082377,153.219100
1123.000887,-9030.512492,0.000000,306.438199
1123.001203,-9548.656652,-222.061783,1072.533697
1123.001518,-9474.636058,-666.185348,1455.581446
1123.001834,-8660.409521,-296.082377,1072.533697
1123.002150,-8660.409521,0.000000,3677.258390
1123.002466,-9326.594869,-592.164754,919.314598
1123.002781,-8734.430116,-1110.308913,1149.143247
1123.003097,-8512.368333,-1628.453072,842.705048
1123.003413,-7920.203579,-1924.535449,76.609550
1123.003729,-8956.491898,-1776.494261,76.609550
1123.004045,-8734.430116,-1554.432478,459.657299
1123.004360,-8142.265362,-1332.370696,153.219100
1123.004676,-8438.347739,-1110.308913,153.219100
1123.004992,-9770.718434,-1184.329507,383.047749
1123.005308,-9696.697840,74.020594,842.705048
1123.005623,-9548.656652,-888.247130,995.924147
1123.005939,-9474.636058,-222.061783,1072.533697
1123.006255,-9474.636058,0.000000,1149.143247
1123.006571,-10658.965565,444.123565,536.266849
1123.006887,-9474.636058,0.000000,1455.581446
1123.007202,-9844.739029,-740.205942,1455.581446
1123.007518,-9622.677246,-592.164754,919.314598
1123.007834,-9918.759623,-1258.350101,2068.457845
1123.008150,-9770.718434,-592.164754,612.876398
1123.008465,-9474.636058,-1184.329507,153.219100
1123.008781,-9918.759623,-1036.288319,153.219100
1123.009097,-9474.636058,-1702.473667,-306.438199
1123.009413,-10066.800811,-518.144159,-1302.362347
1123.009729,-9474.636058,-740.205942,-153.219100
1123.010044,-10214.842000,-888.247130,-306.438199
1123.010360,-9770.718434,-370.102971,-306.438199
1123.010676,-10288.862594,0.000000,-306.438199
1123.010992,-9992.780217,666.185348,459.657299
1123.011307,-10658.965565,0.000000,459.657299
1123.011623,-10140.821405,0.000000,536.266849
1123.011939,-10658.965565,-222.061783,459.657299
1123.012255,-10066.800811,0.000000,536.266849
1123.012571,-10140.821405,-666.185348,612.876398
1123.012886,-9844.739029,-148.041188,459.657299
1123.013202,-9918.759623,-1184.329507,76.609550
1123.013518,-9696.697840,-518.144159,0.000000
1123.013834,-9400.615463,-1628.453072,76.609550
1123.014149,-9622.677246,-1184.329507,-459.657299
1123.014465,-9474.636058,-740.205942,-383.047749
1123.014781,-9178.553681,-1184.329507,-766.095498
1123.015097,-9400.615463,-222.061783,-766.095498
1123.015413,-9474.636058,-962.267725,-459.657299
1123.015728,-9474.636058,-888.247130,-306.438199
1123.016044,-9326.594869,-148.041188,0.000000
1123.016360,-9548.656652,-666.185348,0.000000
1123.016676,-9770.718434,370.102971,766.095498
1123.016991,-9400.615463,0.000000,0.000000
1123.017307,-9474.636058,-296.082377,76.609550
1123.017623,-9326.594869,-518.144159,76.609550
1123.017939,-9104.533087,-370.102971,536.266849
1123.018254,-9252.574275,-666.185348,306.438199
1123.018570,-8882.471304,-592.164754,76.609550
1123.018886,-9030.512492,-740.205942,0.000000
1123.019202,-9104.533087,-962.267725,76.609550
1123.019518,-9178.553681,-814.226536,0.000000
1123.019833,-9030.512492,-1184.329507,306.438199
1123.020149,-9178.553681,-592.164754,229.828649
1123.020465,-9178.553681,-814.226536,306.438199
1123.020781,-9548.656652,-666.185348,536.266849
1123.021096,-9326.594869,-370.102971,306.438199
1123.021412,-9326.594869,-666.185348,1072.533697
1123.021728,-9474.636058,-962.267725,919.314598
1123.022044,-9252.574275,-740.205942,919.314598
1123.022360,-9030.512492,-814.226536,689.485948
1123.022675,-8882.471304,-962.267725,1532.190996
1123.022991,-8956.491898,-666.185348,536.266849
1123.023307,-8956.491898,-888.247130,306.438199
1123.023623,-8734.430116,-962.267725,459.657299
1123.023938,-9696.697840,-296.082377,842.705048
1123.024254,-9326.594869,-666.185348,536.266849
1123.024570,-9400.615463,-518.144159,612.876398
1123.024886,-9474.636058,0.000000,689.485948
1123.025202,-9474.636058,-222.061783,995.924147
1123.025517,-8808.450710,-740.205942,995.924147
1123.025833,-9622.677246,0.000000,1302.362347
1123.026149,-9844.739029,0.000000,919.314598
1123.026465,-9548.656652,0.000000,612.876398
1123.026780,-9696.697840,-222.061783,689.485948
1123.027096,-9400.615463,-666.185348,-229.828649
1123.027412,-9474.636058,-592.164754,0.000000
1123.027728,-9474.636058,-814.226536,0.000000
1123.028044,-9474.636058,-814.226536,-229.828649
1123.028359,-9622.677246,-1036.288319,-306.438199
1123.028675,-9474.636058,-962.267725,0.000000
1123.028991,-9548.656652,-888.247130,-383.047749
1123.029307,-9548.656652,-1036.288319,0.000000
1123.029622,-9622.677246,-962.267725,0.000000
1123.029938,-9844.739029,-888.247130,459.657299
1123.030254,-9770.718434,-814.226536,76.609550
1123.030570,-9844.739029,-814.226536,153.219100
1123.030886,-10066.800811,-444.123565,229.828649
1123.031201,-10288.862594,-592.164754,612.876398
1123.031517,-9992.780217,-666.185348,1225.752797
1123.031833,-9918.759623,-888.247130,689.485948
1123.032149,-9770.718434,-1258.350101,459.657299
1123.032464,-9696.697840,-1332.370696,459.657299
1123.032780,-9548.656652,-1702.473667,76.609550
1123.033096,-9326.594869,-1554.432478,76.609550
1123.033412,-9178.553681,-1998.556043,-306.438199
1123.033727,-9178.553681,-2368.659014,-229.828649
1123.034043,-8882.471304,-2368.659014,-383.047749
1123.034359,-8734.430116,-2220.617826,-689.485948
1123.034675,-8882.471304,-1776.494261,-229.828649
1123.034991,-8956.491898,-1702.473667,-229.828649
1123.035306,-9104.533087,-1628.453072,0.000000
1123.035622,-9252.574275,-1406.391290,0.000000
1123.035938,-9548.656652,-1332.370696,383.047749
1123.036254,-9844.739029,-1036.288319,919.314598
1123.036569,-9548.656652,-1036.288319,766.095498
1123.036885,-9474.636058,-888.247130,612.876398
1123.037201,-9474.636058,-666.185348,459.657299
1123.037517,-9844.739029,-814.226536,459.657299
1123.037833,-9622.677246,-740.205942,459.657299
1123.038148,-9326.594869,-444.123565,306.438199
1123.038464,-9548.656652,-518.144159,306.438199
1123.038780,-9400.615463,-666.185348,0.000000
1123.039096,-9696.697840,-296.082377,-1072.533697
1123.039411,-9622.677246,222.061783,0.000000
1123.039727,-9770.718434,592.164754,306.438199
1123.040043,-10140.821405,962.267725,306.438199
1123.040359,-10066.800811,888.247130,459.657299
1123.040675,-9326.594869,1628.453072,1225.752797
1123.040990,-10066.800811,1406.391290,536.266849
1123.041306,-9992.780217,1702.473667,766.095498
1123.041622,-10066.800811,1406.391290,766.095498
1123.041938,-9326.594869,1406.391290,1302.362347
1123.042253,-9696.697840,1480.411884,229.828649
1123.042569,-9770.718434,1110.308913,0.000000
1123.042885,-9474.636058,1258.350101,-306.438199
1123.043201,-9622.677246,1332.370696,-612.876398
1123.043517,-8068.244768,1110.308913,-459.657299
1123.043832,-9474.636058,1924.535449,-459.657299
1123.044148,-9622.677246,1628.453072,-536.266849
1123.044464,-9622.677246,1628.453072,-229.828649
1123.044780,-9474.636058,1554.432478,-306.438199
1123.045095,-9770.718434,1776.494261,-383.047749
1123.045411,-9696.697840,1258.350101,0.000000
1123.045727,-9326.594869,888.247130,-153.219100
1123.046043,-9104.533087,518.144159,-153.219100
1123.046359,-10362.883188,2294.638420,-995.924147
1123.046674,-9104.533087,148.041188,-766.095498
1123.046990,-9030.512492,-222.061783,-536.266849
1123.047306,-8364.327145,-740.205942,-612.876398
1123.047622,-8586.388927,-888.247130,-919.314598
1123.047937,-8068.244768,-740.205942,-766.095498
1123.048253,-8734.430116,-1406.391290,-306.438199
1123.048569,-8734.430116,-1776.494261,-306.438199
1123.048885,-8512.368333,-1628.453072,-153.219100
1123.049200,-8808.450710,-1850.514855,-1149.143247
1123.049516,-9030.512492,-1110.308913,689.485948
1123.049832,-9030.512492,-1332.370696,459.657299
1123.050148,-9104.533087,-1406.391290,383.047749
1123.050464,-9030.512492,-1332.370696,153.219100
1123.050779,-8290.306550,-1480.411884,-919.314598
1123.051095,-9326.594869,-1332.370696,0.000000
1123.051411,-8956.491898,-1480.411884,-306.438199
1123.051727,-8882.471304,-1554.432478,-995.924147
1123.052042,-9252.574275,-1406.391290,-919.314598
1123.052358,-9474.636058,-666.185348,-612.876398
1123.052674,-9400.615463,-814.226536,-766.095498
1123.052990,-9622.677246,-592.164754,-689.485948
1123.053306,-9770.718434,-296.082377,-842.705048
1123.053621,-10955.047942,148.041188,-1455.581446
1123.053937,-10066.800811,0.000000,-229.828649
1123.054253,-10214.842000,0.000000,-306.438199
1123.054569,-10214.842000,222.061783,0.000000
1123.054884,-10510.924376,222.061783,229.828649
1123.055200,-10288.862594,0.000000,76.609550
1123.055516,-10362.883188,0.000000,383.047749
1123.055832,-10140.821405,-148.041188,-229.828649
1123.056148,-10214.842000,0.000000,-229.828649
1123.056463,-9992.780217,74.020594,-1685.410096
1123.056779,-10066.800811,0.000000,-766.095498
1123.057095,-10066.800811,-222.061783,-766.095498
1123.057411,-10140.821405,0.000000,-536.266849
1123.057726,-10214.842000,74.020594,-689.485948
1123.058042,-10436.903782,74.020594,-612.876398
1123.058358,-10362.883188,444.123565,0.000000
1123.058674,-10288.862594,518.144159,153.219100
1123.058990,-10362.883188,518.144159,459.657299
1123.059305,-11695.253884,1480.411884,383.047749
1123.059621,-10214.842000,962.267725,459.657299
1123.059937,-9918.759623,888.247130,229.828649
1123.060253,-9844.739029,814.226536,0.000000
1123.060568,-9770.718434,370.102971,229.828649
1123.060884,-8364.327145,148.041188,-1072.533697
1123.061200,-9474.636058,296.082377,-153.219100
1123.061516,-9252.574275,592.164754,-383.047749
1123.061831,-9400.615463,444.123565,-766.095498
1123.062147,-9104.533087,666.185348,0.000000
1123.062463,-8882.471304,592.164754,-766.095498
1123.062779,-9104.533087,296.082377,-689.485948
1123.063095,-9252.574275,518.144159,-612.876398
1123.063410,-9104.533087,148.041188,-306.438199
1123.063726,-8438.347739,370.102971,-995.924147
1123.064042,-9178.553681,592.164754,0.000000
1123.064358,-9252.574275,222.061783,612.876398
1123.064673,-8956.491898,148.041188,306.438199
1123.064989,-8734.430116,296.082377,0.000000
1123.065305,-9178.553681,0.000000,536.266849
1123.065621,-8808.450710,-370.102971,0.000000
1123.065937,-8586.388927,-148.041188,-766.095498
1123.066252,-8956.491898,-222.061783,-459.657299
1123.066568,-9030.512492,-370.102971,-1149.143247
1123.066884,-8660.409521,-592.164754,-459.657299
1123.067200,-8956.491898,-444.123565,-536.266849
1123.067515,-8808.450710,-592.164754,-536.266849
1123.067831,-8882.471304,-370.102971,-76.609550
1123.068147,-8956.491898,-148.041188,-229.828649
1123.068463,-9178.553681,-296.082377,0.000000
1123.068779,-9030.512492,148.041188,306.438199
1123.069094,-9400.615463,-296.082377,306.438199
1123.069410,-9252.574275,-740.205942,0.000000
1123.069726,-9030.512492,-148.041188,0.000000
1123.070042,-9326.594869,-444.123565,306.438199
1123.070357,-9252.574275,-148.041188,0.000000
1123.070673,-9474.636058,-592.164754,-153.219100
1123.070989,-9474.636058,-592.164754,612.876398
1123.071305,-9178.553681,-888.247130,0.000000
1123.071621,-9474.636058,-518.144159,-229.828649
1123.071936,-9548.656652,-666.185348,0.000000
1123.072252,-9474.636058,-592.164754,-153.219100
1123.072568,-9770.718434,-518.144159,0.000000
1123.072884,-9844.739029,-666.185348,0.000000
1123.073199,-9844.739029,-222.061783,153.219100
1123.073515,-10140.821405,-296.082377,0.000000
1123.073831,-9770.718434,666.185348,-383.047749
1123.074147,-10362.883188,-666.185348,0.000000
1123.074463,-10436.903782,74.020594,76.609550
1123.074778,-10214.842000,74.020594,76.609550
1123.075094,-10955.047942,148.041188,536.266849
1123.075410,-10214.842000,-592.164754,-153.219100
1123.075726,-10881.027347,-518.144159,-229.828649
1123.076041,-9844.739029,-296.082377,-229.828649
1123.076357,-10362.883188,-222.061783,-383.047749
1123.076673,-10510.924376,222.061783,-612.876398
1123.076989,-10140.821405,-370.102971,-612.876398
1123.077304,-10140.821405,0.000000,0.000000
1123.077620,-10510.924376,0.000000,-306.438199
1123.077936,-9992.780217,0.000000,-383.047749
1123.078252,-11695.253884,1480.411884,-919.314598
1123.078568,-10510.924376,0.000000,-306.438199
1123.078883,-10066.800811,-296.082377,-459.657299
1123.079199,-9770.718434,74.020594,-459.657299
1123.079515,-9844.739029,0.000000,-689.485948
1123.079831,-9918.759623,0.000000,-153.219100
1123.080146,-9400.615463,-814.226536,-612.876398
1123.080462,-9400.615463,0.000000,-689.485948
1123.080778,-9178.553681,148.041188,-459.657299
1123.081094,-9548.656652,-518.144159,383.047749
1123.081410,-9178.553681,-888.247130,-689.485948
1123.081725,-8438.347739,-370.102971,-995.924147
1123.082041,-8956.491898,444.123565,-842.705048
1123.082357,-9548.656652,296.082377,0.000000
1123.082673,-9474.636058,-148.041188,0.000000
1123.082988,-8660.409521,0.000000,-766.095498
1123.083304,-8512.368333,148.041188,-1149.143247
1123.083620,-9548.656652,1110.308913,0.000000
1123.083936,-8586.388927,592.164754,459.657299
1123.084252,-8956.491898,-222.061783,0.000000
1123.084567,-8438.347739,-666.185348,-306.438199
1123.084883,-9326.594869,-518.144159,-76.609550
1123.085199,-9030.512492,-222.061783,0.000000
1123.085515,-8290.306550,-666.185348,-459.657299
1123.085830,-8068.244768,-592.164754,-919.314598
1123.086146,-8734.430116,296.082377,-536.266849
1123.086462,-9622.677246,222.061783,459.657299
1123.086778,-9548.656652,-296.082377,-76.609550
1123.087094,-9104.533087,-592.164754,842.705048
1123.087409,-9252.574275,-814.226536,229.828649
1123.087725,-9474.636058,-370.102971,306.438199
1123.088041,-9474.636058,-370.102971,536.266849
1123.088357,-8438.347739,-592.164754,919.314598
1123.088672,-8882.471304,-814.226536,-229.828649
1123.088988,-9474.636058,-518.144159,0.000000
1123.089304,-9696.697840,0.000000,0.000000
1123.089620,-9474.636058,518.144159,459.657299
1123.089936,-9696.697840,0.000000,536.266849
1123.090251,-9844.739029,-148.041188,0.000000
1123.090567,-10140.821405,0.000000,536.266849
1123.090883,-9992.780217,0.000000,689.485948
1123.091199,-9474.636058,-444.123565,229.828649
1123.091514,-9770.718434,-148.041188,229.828649
1123.091830,-9918.759623,0.000000,229.828649
1123.092146,-9622.677246,0.000000,229.828649
1123.092462,-9474.636058,-814.226536,0.000000
1123.092777,-9252.574275,-1184.329507,229.828649
1123.093093,-9696.697840,-370.102971,-459.657299
1123.093409,-9548.656652,0.000000,-689.485948
1123.093725,-9474.636058,222.061783,-306.438199
1123.094041,-9696.697840,962.267725,0.000000
1123.094356,-10362.883188,0.000000,0.000000
1123.094672,-10436.903782,0.000000,153.219100
1123.094988,-10436.903782,0.000000,689.485948
1123.095304,-10066.800811,-370.102971,-153.219100
1123.095620,-9474.636058,148.041188,-1532.190996
1123.095935,-9770.718434,888.247130,-612.876398
1123.096251,-9622.677246,814.226536,-383.047749
1123.096567,-9844.739029,0.000000,-153.219100
1123.096883,-10288.862594,-740.205942,-689.485948
1123.097198,-9696.697840,-370.102971,-689.485948
1123.097514,-10066.800811,296.082377,-383.047749
1123.097830,-10214.842000,888.247130,0.000000
1123.098146,-10214.842000,148.041188,306.438199
1123.098462,-9918.759623,-1036.288319,-536.266849
1123.098777,-9474.636058,-740.205942,-229.828649
1123.099093,-9918.759623,-148.041188,0.000000
1123.099409,-9844.739029,-592.164754,0.000000
1123.099725,-9400.615463,-962.267725,-536.266849
1123.100041,-8586.388927,-666.185348,-1378.971896
1123.100356,-8882.471304,-222.061783,-919.314598
1123.100672,-9548.656652,-814.226536,-689.485948
1123.100988,-9474.636058,-1036.288319,-766.095498
1123.101304,-9252.574275,222.061783,-842.705048
1123.101620,-9326.594869,0.000000,-919.314598
1123.101935,-9622.677246,222.061783,-766.095498
1123.102251,-9622.677246,370.102971,153.219100
1123.102567,-9178.553681,444.123565,0.000000
1123.102883,-9104.533087,444.123565,1149.143247
1123.103198,-9918.759623,222.061783,153.219100
1123.103514,-9252.574275,148.041188,306.438199
1123.103830,-8808.450710,222.061783,0.000000
1123.104146,-9030.512492,0.000000,-995.924147
1123.104462,-8734.430116,-296.082377,-459.657299
1123.104777,-8956.491898,-592.164754,-459.657299
1123.105093,-8956.491898,-740.205942,-842.705048
1123.105409,-8586.388927,-888.247130,-1149.143247
1123.105725,-8290.306550,-592.164754,-2068.457845
1123.106041,-9104.533087,0.000000,-1225.752797
1123.106356,-9326.594869,74.020594,-689.485948
1123.106672,-8956.491898,666.185348,-612.876398
1123.106988,-9548.656652,74.020594,-383.047749
1123.107304,-9622.677246,1110.308913,383.047749
1123.107619,-9622.677246,518.144159,459.657299
1123.107935,-9992.780217,1110.308913,536.266849
1123.108251,-9696.697840,370.102971,612.876398
1123.108567,-10214.842000,444.123565,459.657299
1123.108883,-9548.656652,74.020594,536.266849
1123.109198,-10066.800811,0.000000,229.828649
1123.109514,-9252.574275,-444.123565,0.000000
1123.109830,-10066.800811,-370.102971,-383.047749
1123.110146,-9326.594869,-666.185348,0.000000
1123.110462,-9696.697840,-1036.288319,-459.657299
1123.110777,-8808.450710,-444.123565,-459.657299
1123.111093,-9918.759623,-740.205942,-689.485948
1123.111409,-9474.636058,296.082377,0.000000
1123.111725,-10066.800811,-518.144159,-306.438199
1123.112041,-9622.677246,148.041188,0.000000
1123.112356,-9696.697840,-222.061783,0.000000
1123.112672,-10066.800811,0.000000,306.438199
1123.112988,-8956.491898,-370.102971,76.609550
1123.113304,-9770.718434,0.000000,153.219100
1123.113619,-9918.759623,370.102971,153.219100
1123.113935,-9770.718434,74.020594,153.219100
1123.114251,-9844.739029,-444.123565,459.657299
1123.114567,-9622.677246,296.082377,383.047749
1123.114883,-9918.759623,-518.144159,0.000000
1123.115198,-9770.718434,-370.102971,0.000000
1123.115514,-9696.697840,-148.041188,0.000000
1123.115830,-9104.533087,-1554.432478,-842.705048
1123.116146,-9178.553681,-370.102971,0.000000
1123.116462,-9474.636058,-296.082377,0.000000
1123.116777,-9696.697840,-888.247130,76.609550
1123.117093,-9252.574275,-370.102971,0.000000
1123.117409,-8882.471304,-592.164754,-766.095498
1123.117725,-9400.615463,-296.082377,-459.657299
1123.118040,-9548.656652,-222.061783,-306.438199
1123.118356,-9474.636058,-148.041188,-459.657299
1123.118672,-9474.636058,-222.061783,-306.438199
1123.118988,-9696.697840,0.000000,-383.047749
1123.119304,-9400.615463,0.000000,-689.485948
1123.119619,-9622.677246,148.041188,-229.828649
1123.119935,-9400.615463,222.061783,-229.828649
1123.120251,-9104.533087,0.000000,-1149.143247
1123.120567,-9474.636058,-148.041188,0.000000
1123.120883,-9548.656652,0.000000,-306.438199
1123.121198,-9400.615463,148.041188,-153.219100
1123.121514,-9474.636058,370.102971,0.000000
1123.121830,-9622.677246,370.102971,-153.219100
1123.122146,-9474.636058,518.144159,-153.219100
1123.122462,-9622.677246,518.144159,-153.219100
1123.122777,-9400.615463,222.061783,-612.876398
1123.123093,-9622.677246,148.041188,306.438199
1123.123409,-9474.636058,296.082377,0.000000
1123.123725,-9474.636058,222.061783,-153.219100
1123.124040,-9474.636058,296.082377,0.000000
1123.124356,-9770.718434,370.102971,-229.828649
1123.124672,-9326.594869,0.000000,0.000000
1123.124988,-9252.574275,222.061783,0.000000
1123.125304,-9474.636058,444.123565,0.000000
1123.125619,-9622.677246,370.102971,0.000000
1123.125935,-9030.512492,74.020594,0.000000
1123.126251,-9474.636058,74.020594,0.000000
1123.126567,-9474.636058,518.144159,0.000000
1123.126883,-9474.636058,222.061783,0.000000
1123.127198,-9622.677246,296.082377,0.000000
1123.127514,-9178.553681,814.226536,-1149.143247
1123.127830,-9548.656652,370.102971,0.000000
1123.128146,-9474.636058,518.144159,-306.438199
1123.128462,-9622.677246,444.123565,-459.657299
1123.128777,-9326.594869,518.144159,1608.800546
1123.129093,-9548.656652,814.226536,-766.095498
1123.129409,-9548.656652,296.082377,0.000000
1123.129725,-9474.636058,296.082377,0.000000
1123.130040,-9474.636058,666.185348,-612.876398
1123.130356,-9400.615463,518.144159,919.314598
1123.130672,-9548.656652,518.144159,-306.438199
1123.130988,-9474.636058,222.061783,-459.657299
1123.131304,-9252.574275,74.020594,-766.095498
1123.131619,-9474.636058,74.020594,-536.266849
1123.131935,-9474.636058,0.000000,-766.095498
1123.132251,-9474.636058,74.020594,-689.485948
1123.132567,-9326.594869,148.041188,-689.485948
1123.132883,-9474.636058,518.144159,-689.485948
1123.133198,-9622.677246,666.185348,-306.438199
1123.133514,-9770.718434,370.102971,0.000000
1123.133830,-9548.656652,592.164754,153.219100
1123.134146,-9696.697840,740.205942,76.609550
1123.134461,-9992.780217,666.185348,229.828649
1123.134777,-9326.594869,296.082377,383.047749
1123.135093,-9474.636058,444.123565,306.438199
1123.135409,-9622.677246,222.061783,383.047749
1123.135725,-9770.718434,-148.041188,383.047749
1123.136040,-9622.677246,-222.061783,1378.971896
1123.136356,-9252.574275,-444.123565,229.828649
1123.136672,-9326.594869,-222.061783,0.000000
1123.136988,-9474.636058,-370.102971,76.609550
1123.137304,-9326.594869,-444.123565,76.609550
1123.137619,-9474.636058,148.041188,0.000000
1123.137935,-9400.615463,0.000000,0.000000
1123.138251,-9696.697840,-296.082377,229.828649
1123.138567,-9770.718434,-296.082377,383.047749
1123.138883,-9548.656652,-740.205942,306.438199
1123.139198,-9400.615463,-1036.288319,306.438199
1123.139514,-9474.636058,-592.164754,612.876398
1123.139830,-9548.656652,-814.226536,536.266849
1123.140146,-9400.615463,-1184.329507,153.219100
1123.140461,-8438.347739,-1258.350101,-1149.143247
1123.140777,-9030.512492,-1184.329507,0.000000
1123.141093,-9326.594869,-1332.370696,229.828649
1123.141409,-9178.553681,-1332.370696,153.219100
1123.141725,-9104.533087,-1406.391290,0.000000
1123.142040,-9252.574275,-1480.411884,-229.828649
1123.142356,-9178.553681,-1628.453072,0.000000
1123.142672,-9474.636058,-1480.411884,229.828649
1123.142988,-9474.636058,-1998.556043,459.657299
1123.143304,-9252.574275,-1850.514855,306.438199
1123.143619,-8956.491898,-2146.597232,459.657299
1123.143935,-9252.574275,-1924.535449,459.657299
1123.144251,-9104.533087,-2220.617826,459.657299
1123.144567,-9030.512492,-2220.617826,0.000000
1123.144882,-9104.533087,-1776.494261,229.828649
1123.145198,-9622.677246,-1480.411884,0.000000
1123.145514,-9474.636058,-1406.391290,-153.219100
1123.145830,-9474.636058,-1110.308913,-229.828649
1123.146146,-10436.903782,-666.185348,153.219100
1123.146461,-9770.718434,-592.164754,0.000000
1123.146777,-10066.800811,-222.061783,612.876398
1123.147093,-10288.862594,0.000000,383.047749
1123.147409,-10214.842000,0.000000,536.266849
1123.147725,-10732.986159,888.247130,76.609550
1123.148040,-10140.821405,148.041188,459.657299
1123.148356,-10214.842000,370.102971,306.438199
1123.148672,-10214.842000,518.144159,383.047749
1123.148988,-10140.821405,0.000000,612.876398
1123.149304,-10288.862594,222.061783,0.000000
1123.149619,-9992.780217,0.000000,0.000000
1123.149935,-10066.800811,148.041188,0.000000
1123.150251,-9918.759623,296.082377,-306.438199
1123.150567,-10214.842000,740.205942,-689.485948
1123.150882,-9548.656652,0.000000,0.000000
1123.151198,-9770.718434,0.000000,0.000000
1123.151514,-9696.697840,0.000000,153.219100
1123.151830,-9548.656652,0.000000,229.828649
1123.152146,-9326.594869,74.020594,919.314598
1123.152461,-9252.574275,0.000000,306.438199
1123.152777,-9400.615463,222.061783,459.657299
1123.153093,-9474.636058,148.041188,919.314598
1123.153409,-9474.636058,-962.267725,1072.533697
1123.153725,-9326.594869,0.000000,766.095498
1123.154040,-9400.615463,148.041188,689.485948
1123.154356,-9326.594869,0.000000,842.705048
1123.154672,-9252.574275,0.000000,842.705048
1123.154988,-9548.656652,148.041188,1455.581446
1123.155304,-8956.491898,-370.102971,689.485948
1123.155619,-9326.594869,-518.144159,689.485948
1123.155935,-8956.491898,-740.205942,536.266849
1123.156251,-8586.388927,-740.205942,1225.752797
1123.156567,-8364.327145,-1184.329507,153.219100
1123.156882,-8734.430116,-1258.350101,-153.219100
1123.157198,-8512.368333,-1184.329507,0.000000
1123.157514,-8364.327145,-1184.329507,0.000000
1123.157830,-8882.471304,-1776.494261,612.876398
1123.158146,-8660.409521,-1332.370696,0.000000
1123.158461,-9178.553681,-1110.308913,0.000000
1123.158777,-8956.491898,-1184.329507,459.657299
1123.159093,-8956.491898,-962.267725,0.000000
1123.159409,-9326.594869,-888.247130,919.314598
1123.159725,-9400.615463,-888.247130,536.266849
1123.160040,-9104.533087,-1110.308913,612.876398
1123.160356,-9474.636058,-1184.329507,459.657299
1123.160672,-8882.471304,-1480.411884,536.266849
1123.160988,-9474.636058,-1480.411884,383.047749
1123.161303,-9104.533087,-1702.473667,383.047749
1123.161619,-9400.615463,-1850.514855,306.438199
1123.161935,-9252.574275,-2072.576638,0.000000
1123.162251,-9104.533087,-2072.576638,229.828649
1123.162567,-9400.615463,-1850.514855,76.609550
1123.162882,-9400.615463,-1998.556043,-383.047749
1123.163198,-9696.697840,-1554.432478,-459.657299
1123.163514,-9474.636058,-1554.432478,-153.219100
1123.163830,-10288.862594,-962.267725,-229.828649
1123.164146,-10066.800811,-1036.288319,76.609550
1123.164461,-10140.821405,-1184.329507,536.266849
1123.164777,-10436.903782,-888.247130,459.657299
1123.165093,-10510.924376,-592.164754,459.657299
1123.165409,-10436.903782,-296.082377,612.876398
1123.165725,-10658.965565,0.000000,1072.533697
1123.166040,-10584.944971,-592.164754,995.924147
1123.166356,-10362.883188,0.000000,919.314598
1123.166672,-10658.965565,-148.041188,919.314598
1123.166988,-10436.903782,0.000000,536.266849
1123.167303,-10436.903782,0.000000,689.485948
1123.167619,-10510.924376,0.000000,383.047749
1123.167935,-9918.759623,0.000000,-383.047749
1123.168251,-9918.759623,-296.082377,536.266849
1123.168567,-9992.780217,0.000000,-306.438199
1123.168882,-9918.759623,-222.061783,0.000000
1123.169198,-9770.718434,0.000000,0.000000
1123.169514,-9474.636058,-148.041188,229.828649
1123.169830,-9918.759623,148.041188,0.000000
1123.170146,-9548.656652,0.000000,76.609550
1123.170461,-9622.677246,0.000000,0.000000
1123.170777,-9474.636058,74.020594,306.438199
1123.171093,-9474.636058,-296.082377,0.000000
1123.171409,-9400.615463,370.102971,459.657299
1123.171725,-9474.636058,-296.082377,612.876398
1123.172040,-9474.636058,0.000000,306.438199
1123.172356,-7994.224174,-666.185348,153.219100
1123.172672,-9548.656652,-222.061783,383.047749
1123.172988,-8586.388927,-370.102971,76.609550
1123.173303,-9326.594869,-740.205942,383.047749
1123.173619,-8808.450710,-666.185348,459.657299
1123.173935,-8660.409521,-666.185348,0.000000
1123.174251,-8734.430116,-222.061783,153.219100
1123.174567,-8882.471304,-518.144159,0.000000
1123.174882,-8512.368333,-518.144159,383.047749
1123.175198,-8512.368333,74.020594,0.000000
1123.175514,-8142.265362,-1184.329507,0.000000
1123.175830,-8216.285956,-666.185348,0.000000
1123.176146,-8660.409521,-666.185348,689.485948
1123.176461,-8660.409521,-1184.329507,306.438199
1123.176777,-7772.162391,-1258.350101,0.000000
1123.177093,-8586.388927,-592.164754,0.000000
1123.177409,-8956.491898,-518.144159,842.705048
1123.177724,-8660.409521,-1480.411884,383.047749
1123.178040,-8586.388927,-1554.432478,-229.828649
1123.178356,-8216.285956,-518.144159,153.219100
1123.178672,-9326.594869,148.041188,459.657299
1123.178988,-9844.739029,-962.267725,536.266849
1123.179303,-8956.491898,-740.205942,153.219100
1123.179619,-8882.471304,0.000000,1608.800546
1123.179935,-9992.780217,518.144159,842.705048
1123.180251,-10436.903782,-296.082377,1608.800546
1123.180567,-9918.759623,-1258.350101,1225.752797
1123.180882,-8438.347739,-1332.370696,0.000000
1123.181198,-9696.697840,-888.247130,-766.095498
1123.181514,-10214.842000,0.000000,459.657299
1123.181830,-9770.718434,-296.082377,536.266849
1123.182146,-9252.574275,-148.041188,0.000000
1123.182461,-9992.780217,-518.144159,-536.266849
1123.182777,-10807.006753,-370.102971,383.047749
1123.183093,-10732.986159,-592.164754,995.924147
1123.183409,-9770.718434,-962.267725,306.438199
1123.183724,-9696.697840,-814.226536,-229.828649
1123.184040,-10732.986159,0.000000,-536.266849
1123.184356,-10658.965565,-296.082377,153.219100
1123.184672,-10214.842000,148.041188,536.266849
1123.184988,-10140.821405,-148.041188,0.000000
1123.185303,-10881.027347,-962.267725,0.000000
1123.185619,-10955.047942,222.061783,536.266849
1123.185935,-10288.862594,370.102971,1072.533697
1123.186251,-10510.924376,-444.123565,995.924147
1123.186567,-10288.862594,-1184.329507,153.219100
1123.186882,-9992.780217,-962.267725,-1762.019645
1123.187198,-10066.800811,-740.205942,0.000000
1123.187514,-9474.636058,-592.164754,-229.828649
1123.187830,-9474.636058,-518.144159,-383.047749
1123.188145,-9548.656652,148.041188,-229.828649
1123.188461,-9918.759623,-148.041188,76.609550
1123.188777,-9696.697840,222.061783,76.609550
1123.189093,-9622.677246,444.123565,153.219100
1123.189409,-10066.800811,222.061783,383.047749
1123.189724,-9696.697840,444.123565,306.438199
1123.190040,-9474.636058,0.000000,0.000000
1123.190356,-9030.512492,0.000000,0.000000
1123.190672,-9474.636058,-296.082377,0.000000
1123.190988,-9178.553681,-666.185348,229.828649
1123.191303,-8438.347739,-962.267725,-229.828649
1123.191619,-8438.347739,-962.267725,-306.438199
1123.191935,-8808.450710,-370.102971,-459.657299
1123.192251,-9030.512492,0.000000,76.609550
1123.192567,-9696.697840,-148.041188,306.438199
1123.192882,-9252.574275,-518.144159,842.705048
1123.193198,-9474.636058,-1702.473667,842.705048
1123.193514,-9252.574275,-1850.514855,612.876398
1123.193830,-8586.388927,-1258.350101,842.705048
1123.194145,-9326.594869,0.000000,1072.533697
1123.194461,-9104.533087,-1480.411884,842.705048
1123.194777,-8438.347739,-2516.700203,229.828649
1123.195093,-8068.244768,-2294.638420,-383.047749
1123.195409,-7920.203579,-666.185348,-306.438199
1123.195724,-8808.450710,-814.226536,0.000000
1123.196040,-8956.491898,-1036.288319,229.828649
1123.196356,-8290.306550,-1036.288319,0.000000
1123.196672,-8660.409521,74.020594,76.609550
1123.196988,-10066.800811,444.123565,2911.162892
1123.197303,-10436.903782,-592.164754,2145.067394
1123.197619,-9104.533087,-814.226536,1455.581446
1123.197935,-9178.553681,-148.041188,1532.190996
1123.198251,-9474.636058,-148.041188,1378.971896
1123.198567,-9770.718434,-444.123565,1378.971896
1123.198882,-8882.471304,-888.247130,1149.143247
1123.199198,-8586.388927,-1480.411884,306.438199
1123.199514,-9178.553681,-1258.350101,-306.438199
1123.199830,-9622.677246,0.000000,1608.800546
1123.200145,-9474.636058,-888.247130,306.438199
1123.200461,-9178.553681,-1110.308913,-153.219100
1123.200777,-9696.697840,-962.267725,-153.219100
1123.201093,-10362.883188,-444.123565,0.000000
1123.201409,-9696.697840,-370.102971,153.219100
1123.201724,-9844.739029,-370.102971,612.876398
1123.202040,-9696.697840,-592.164754,153.219100
1123.202356,-10362.883188,-518.144159,229.828649
1123.202672,-10066.800811,814.226536,2374.896044
1123.202988,-10436.903782,-370.102971,842.705048
1123.203303,-9918.759623,-370.102971,383.047749
1123.203619,-10362.883188,-1628.453072,229.828649
1123.203935,-10732.986159,-296.082377,306.438199
1123.204251,-10732.986159,-1258.350101,0.000000
1123.204566,-10436.903782,-666.185348,153.219100
1123.204882,-9844.739029,-1184.329507,0.000000
1123.205198,-10436.903782,-1184.329507,-383.047749
1123.205514,-9622.677246,-1184.329507,-229.828649
1123.205830,-10140.821405,-1036.288319,-229.828649
1123.206145,-9474.636058,-814.226536,-306.438199
1123.206461,-10214.842000,-592.164754,-689.485948
1123.206777,-9326.594869,-740.205942,-153.219100
1123.207093,-10362.883188,-888.247130,-306.438199
1123.207409,-9030.512492,-444.123565,0.000000
1123.207724,-9770.718434,-1036.288319,0.000000
1123.208040,-9474.636058,-222.061783,0.000000
1123.208356,-9622.677246,-962.267725,-229.828649
1123.208672,-8734.430116,-370.102971,-306.438199
1123.208988,-9400.615463,-1258.350101,76.609550
1123.209303,-9252.574275,-1184.329507,306.438199
1123.209619,-8882.471304,-1036.288319,76.609550
1123.209935,-8290.306550,-1554.432478,-229.828649
1123.210251,-8882.471304,-1110.308913,153.219100
1123.210566,-8882.471304,-1036.288319,383.047749
1123.210882,-9030.512492,-1258.350101,612.876398
1123.211198,-8956.491898,-740.205942,306.438199
1123.211514,-9548.656652,814.226536,383.047749
1123.211830,-9252.574275,-740.205942,919.314598
1123.212145,-9252.574275,-444.123565,766.095498
1123.212461,-9252.574275,-592.164754,306.438199
1123.212777,-9030.512492,-444.123565,1685.410096
1123.213093,-9104.533087,-740.205942,689.485948
1123.213409,-9326.594869,-1036.288319,459.657299
1123.213724,-8808.450710,-814.226536,383.047749
1123.214040,-8808.450710,-592.164754,689.485948
1123.214356,-8660.409521,-370.102971,-842.705048
1123.214672,-9252.574275,-444.123565,536.266849
1123.214987,-9400.615463,-592.164754,612.876398
1123.215303,-9252.574275,-370.102971,842.705048
1123.215619,-9696.697840,-592.164754,919.314598
1123.215935,-10066.800811,-296.082377,689.485948
1123.216251,-9400.615463,-592.164754,995.924147
1123.216566,-9474.636058,-370.102971,995.924147
1123.216882,-9696.697840,-592.164754,995.924147
1123.217198,-9622.677246,-444.123565,919.314598
1123.217514,-9548.656652,-518.144159,766.095498
1123.217830,-9326.594869,-666.185348,229.828649
1123.218145,-9474.636058,-370.102971,0.000000
1123.218461,-9548.656652,-370.102971,229.828649
1123.218777,-9622.677246,-592.164754,76.609550
1123.219093,-9326.594869,-222.061783,0.000000
1123.219408,-9474.636058,-370.102971,-229.828649
1123.219724,-9548.656652,-296.082377,76.609550
1123.220040,-9622.677246,-222.061783,153.219100
1123.220356,-9770.718434,148.041188,383.047749
1123.220672,-9770.718434,444.123565,306.438199
1123.220987,-9918.759623,148.041188,306.438199
1123.221303,-9770.718434,74.020594,459.657299
1123.221619,-10066.800811,74.020594,306.438199
1123.221935,-9844.739029,-148.041188,612.876398
1123.222251,-9918.759623,-222.061783,459.657299
1123.222566,-9770.718434,-370.102971,-306.438199
1123.222882,-9770.718434,-444.123565,0.000000
1123.223198,-10955.047942,222.061783,-229.828649
1123.223514,-9548.656652,-1258.350101,-306.438199
1123.223830,-9696.697840,-1110.308913,-306.438199
1123.224145,-9474.636058,-1184.329507,-383.047749
1123.224461,-9030.512492,-1406.391290,-153.219100
1123.224777,-9622.677246,-1258.350101,76.609550
1123.225093,-9622.677246,-1480.411884,0.000000
1123.225408,-9474.636058,-1628.453072,153.219100
1123.225724,-9326.594869,-1406.391290,76.609550
1123.226040,-9400.615463,-1406.391290,383.047749
1123.226356,-9696.697840,-1628.453072,689.485948
1123.226672,-9474.636058,-1924.535449,383.047749
1123.226987,-9178.553681,-2072.576638,229.828649
1123.227303,-9252.574275,-1998.556043,1532.190996
1123.227619,-9178.553681,-1998.556043,229.828649
1123.227935,-9178.553681,-2146.597232,0.000000
1123.228251,-8882.471304,-2146.597232,0.000000
1123.228566,-8882.471304,-2146.597232,0.000000
1123.228882,-9400.615463,-1628.453072,612.876398
1123.229198,-9252.574275,-1480.411884,153.219100
1123.229514,-9178.553681,-1184.329507,229.828649
1123.229829,-9252.574275,-1184.329507,459.657299
1123.230145,-9400.615463,-888.247130,536.266849
1123.230461,-8956.491898,-814.226536,536.266849
1123.230777,-9474.636058,-740.205942,689.485948
1123.231093,-9178.553681,-444.123565,306.438199
1123.231408,-9474.636058,-814.226536,306.438199
1123.231724,-9474.636058,-370.102971,1685.410096
1123.232040,-9326.594869,-740.205942,0.000000
1123.232356,-9548.656652,0.000000,76.609550
1123.232672,-9622.677246,74.020594,383.047749
1123.232987,-10066.800811,222.061783,383.047749
1123.233303,-9918.759623,740.205942,306.438199
1123.233619,-10066.800811,814.226536,383.047749
1123.233935,-10214.842000,1480.411884,919.314598
1123.234251,-11103.089130,1258.350101,1455.581446
1123.234566,-10584.944971,1332.370696,919.314598
1123.234882,-10436.903782,888.247130,995.924147
1123.235198,-10140.821405,1184.329507,689.485948
1123.235514,-10140.821405,814.226536,766.095498
1123.235829,-9918.759623,888.247130,229.828649
1123.236145,-8956.491898,1036.288319,0.000000
1123.236461,-9400.615463,592.164754,-995.924147
1123.236777,-9326.594869,1258.350101,-1302.362347
1123.237093,-9548.656652,1406.391290,-766.095498
1123.237408,-9400.615463,1554.432478,-995.924147
1123.237724,-9178.553681,1332.370696,-1225.752797
1123.238040,-9622.677246,1998.556043,-842.705048
1123.238356,-9770.718434,1924.535449,-536.266849
1123.238672,-9770.718434,1924.535449,0.000000
1123.238987,-9844.739029,1036.288319,-612.876398
1123.239303,-9548.656652,1036.288319,0.000000
1123.239619,-9474.636058,814.226536,306.438199
1123.239935,-9400.615463,296.082377,153.219100
1123.240250,-8882.471304,-296.082377,-153.219100
1123.240566,-8586.388927,-814.226536,-383.047749
1123.240882,-8660.409521,-888.247130,-1149.143247
1123.241198,-8660.409521,-962.267725,-1072.533697
1123.241514,-8586.388927,-1554.432478,-1225.752797
1123.241829,-8586.388927,-1332.370696,-1991.848295
1123.242145,-8512.368333,-1184.329507,-1302.362347
1123.242461,-8956.491898,-1036.288319,-689.485948
1123.242777,-9104.533087,-666.185348,0.000000
1123.243093,-9252.574275,-888.247130,459.657299
1123.243408,-9030.512492,-1480.411884,229.828649
1123.243724,-9474.636058,-1110.308913,612.876398
1123.244040,-9474.636058,-1110.308913,1072.533697
1123.244356,-9252.574275,-1036.288319,919.314598
1123.244672,-8882.471304,-1702.473667,229.828649
1123.244987,-9178.553681,-1776.494261,383.047749
1123.245303,-8956.491898,-1554.432478,-229.828649
1123.245619,-9030.512492,-1554.432478,-689.485948
1123.245935,-8956.491898,-1776.494261,-919.314598
1123.246250,-8512.368333,-814.226536,-2145.067394
1123.246566,-8882.471304,-1184.329507,-1225.752797
1123.246882,-9474.636058,-888.247130,-919.314598
1123.247198,-9548.656652,-666.185348,-306.438199
1123.247514,-9844.739029,-296.082377,-306.438199
1123.247829,-10066.800811,0.000000,-383.047749
1123.248145,-10066.800811,370.102971,306.438199
1123.248461,-10066.800811,444.123565,383.047749
1123.248777,-10140.821405,148.041188,306.438199
1123.249093,-10214.842000,222.061783,229.828649
1123.249408,-10288.862594,74.020594,306.438199
1123.249724,-10214.842000,-222.061783,-229.828649
1123.250040,-10214.842000,-370.102971,-153.219100
1123.250356,-9918.759623,-666.185348,-459.657299
1123.250671,-10214.842000,-148.041188,-229.828649
1123.250987,-9844.739029,-666.185348,-689.485948
1123.251303,-10214.842000,-222.061783,-995.924147
1123.251619,-9992.780217,-296.082377,-842.705048
1123.251935,-10140.821405,518.144159,-919.314598
1123.252250,-10288.862594,740.205942,0.000000
1123.252566,-10436.903782,962.267725,0.000000
1123.252882,-10584.944971,1258.350101,229.828649
1123.253198,-10584.944971,1036.288319,383.047749
1123.253514,-10362.883188,962.267725,-995.924147
1123.253829,-10584.944971,1110.308913,459.657299
1123.254145,-10066.800811,888.247130,459.657299
1123.254461,-9918.759623,814.226536,306.438199
1123.254777,-9844.739029,740.205942,-153.219100
1123.255093,-9696.697840,592.164754,-536.266849
1123.255408,-9400.615463,666.185348,-995.924147
1123.255724,-9326.594869,518.144159,-1225.752797
1123.256040,-9178.553681,518.144159,-1149.143247
1123.256356,-9030.512492,814.226536,-1225.752797
1123.256671,-9030.512492,1036.288319,-1149.143247
1123.256987,-8882.471304,1184.329507,-536.266849
1123.257303,-9252.574275,1258.350101,-306.438199
1123.257619,-9400.615463,962.267725,0.000000
1123.257935,-9030.512492,814.226536,-459.657299
1123.258250,-9178.553681,888.247130,229.828649
1123.258566,-9178.553681,666.185348,76.609550
1123.258882,-8660.409521,518.144159,0.000000
1123.259198,-8660.409521,1554.432478,-383.047749
1123.259514,-8808.450710,0.000000,-536.266849
1123.259829,-8734.430116,-740.205942,-612.876398
1123.260145,-8068.244768,-1036.288319,-919.314598
1123.260461,-8364.327145,-740.205942,-842.705048
1123.260777,-8290.306550,-1184.329507,0.000000
1123.261092,-8438.347739,-1110.308913,-689.485948
1123.261408,-8586.388927,-1036.288319,-612.876398
1123.261724,-8734.430116,-1406.391290,-306.438199
1123.262040,-8734.430116,-666.185348,0.000000
1123.262356,-8956.491898,-888.247130,306.438199
1123.262671,-9178.553681,-666.185348,612.876398
1123.262987,-8882.471304,-222.061783,383.047749
1123.263303,-9326.594869,-666.185348,306.438199
1123.263619,-9844.739029,1924.535449,153.219100
1123.263935,-9474.636058,-592.164754,536.266849
1123.264250,-9326.594869,-592.164754,0.000000
1123.264566,-9178.553681,-888.247130,76.609550
1123.264882,-9400.615463,-740.205942,0.000000
1123.265198,-9178.553681,-1036.288319,-459.657299
1123.265514,-9474.636058,-666.185348,0.000000
1123.265829,-9474.636058,-666.185348,-306.438199
1123.266145,-9844.739029,-814.226536,76.609550
1123.266461,-9326.594869,0.000000,306.438199
1123.266777,-9992.780217,-518.144159,229.828649
1123.267092,-9992.780217,74.020594,536.266849
1123.267408,-10140.821405,-222.061783,766.095498
1123.267724,-10362.883188,370.102971,306.438199
1123.268040,-9918.759623,74.020594,995.924147
1123.268356,-10658.965565,0.000000,153.219100
1123.268671,-9696.697840,148.041188,-306.438199
1123.268987,-10732.986159,370.102971,0.000000
1123.269303,-10214.842000,1184.329507,0.000000
1123.269619,-10732.986159,666.185348,-229.828649
1123.269935,-10510.924376,370.102971,0.000000
1123.270250,-10658.965565,0.000000,-153.219100
1123.270566,-10362.883188,444.123565,-153.219100
1123.270882,-10288.862594,0.000000,306.438199
1123.271198,-10362.883188,0.000000,0.000000
1123.271513,-10066.800811,0.000000,0.000000
1123.271829,-10288.862594,74.020594,-153.219100
1123.272145,-10362.883188,-222.061783,0.000000
1123.272461,-9770.718434,-518.144159,-536.266849
1123.272777,-9548.656652,0.000000,-766.095498
1123.273092,-9770.718434,74.020594,-612.876398
1123.273408,-9992.780217,0.000000,-612.876398
1123.273724,-9326.594869,0.000000,-612.876398
1123.274040,-9474.636058,296.082377,-1072.533697
1123.274356,-9474.636058,814.226536,-612.876398
1123.274671,-10288.862594,592.164754,-229.828649
1123.274987,-9474.636058,0.000000,-306.438199
1123.275303,-8808.450710,148.041188,-459.657299
1123.275619,-8734.430116,1110.308913,-459.657299
1123.275935,-9844.739029,888.247130,459.657299
1123.276250,-9622.677246,518.144159,612.876398
1123.276566,-8364.327145,-1036.288319,-306.438199
1123.276882,-8290.306550,-888.247130,-766.095498
1123.277198,-8734.430116,-592.164754,-995.924147
1123.277513,-8734.430116,-518.144159,-612.876398
1123.277829,-7698.141797,-296.082377,-1225.752797
1123.278145,-8438.347739,-444.123565,-919.314598
1123.278461,-8660.409521,0.000000,-459.657299
1123.278777,-9104.533087,-740.205942,-383.047749
1123.279092,-9030.512492,-222.061783,383.047749
1123.279408,-8808.450710,-370.102971,153.219100
1123.279724,-9178.553681,-1110.308913,76.609550
1123.280040,-8882.471304,-666.185348,0.000000
1123.280356,-8512.368333,-518.144159,306.438199
1123.280671,-8068.244768,-518.144159,0.000000
1123.280987,-9844.739029,-296.082377,536.266849
1123.281303,-9474.636058,-518.144159,229.828649
1123.281619,-9326.594869,-444.123565,459.657299
1123.281934,-9178.553681,-592.164754,383.047749
1123.282250,-9178.553681,-962.267725,153.219100
1123.282566,-9696.697840,-296.082377,306.438199
1123.282882,-9474.636058,-888.247130,229.828649
1123.283198,-9548.656652,-888.247130,383.047749
1123.283513,-9104.533087,-814.226536,153.219100
1123.283829,-9104.533087,-814.226536,536.266849
1123.284145,-9548.656652,-296.082377,459.657299
1123.284461,-9696.697840,-740.205942,459.657299
1123.284777,-9474.636058,-592.164754,0.000000
1123.285092,-9474.636058,-592.164754,0.000000
1123.285408,-9252.574275,-1850.514855,383.047749
1123.285724,-9770.718434,0.000000,153.219100
1123.286040,-9770.718434,74.020594,-153.219100
1123.286356,-9548.656652,74.020594,-229.828649
1123.286671,-10362.883188,74.020594,0.000000
1123.286987,-10436.903782,666.185348,153.219100
1123.287303,-10214.842000,592.164754,0.000000
1123.287619,-10214.842000,518.144159,153.219100
1123.287934,-10214.842000,0.000000,-229.828649
1123.288250,-9474.636058,74.020594,-766.095498
1123.288566,-9770.718434,962.267725,-612.876398
1123.288882,-9770.718434,1184.329507,-459.657299
1123.289198,-10288.862594,370.102971,-383.047749
1123.289513,-10436.903782,-296.082377,-229.828649
1123.289829,-9474.636058,0.000000,-766.095498
1123.290145,-10066.800811,666.185348,-1072.533697
1123.290461,-10881.027347,962.267725,0.000000
1123.290777,-10510.924376,-296.082377,-229.828649
1123.291092,-9770.718434,-592.164754,306.438199
1123.291408,-9326.594869,-518.144159,-689.485948
1123.291724,-10436.903782,0.000000,-229.828649
1123.292040,-9992.780217,-962.267725,-229.828649
1123.292355,-9326.594869,-1036.288319,-842.705048
1123.292671,-8512.368333,-740.205942,-919.314598
1123.292987,-9770.718434,-1036.288319,-612.876398
1123.293303,-9770.718434,-740.205942,-612.876398
1123.293619,-9326.594869,-1036.288319,-689.485948
1123.293934,-9030.512492,-222.061783,0.000000
1123.294250,-9474.636058,-370.102971,-1225.752797
1123.294566,-9696.697840,222.061783,-536.266849
1123.294882,-9474.636058,370.102971,0.000000
1123.295198,-8808.450710,518.144159,-383.047749
1123.295513,-9474.636058,0.000000,-766.095498
1123.295829,-9622.677246,592.164754,153.219100
1123.296145,-9178.553681,444.123565,229.828649
1123.296461,-9030.512492,74.020594,0.000000
1123.296777,-8660.409521,0.000000,-383.047749
1123.297093,-8808.450710,-592.164754,-459.657299
1123.297409,-8660.409521,-370.102971,0.000000
1123.297724,-8364.327145,-740.205942,0.000000
1123.298040,-8438.347739,-888.247130,-612.876398
1123.298356,-8364.327145,-1036.288319,-1762.019645
1123.298672,-9030.512492,-592.164754,-383.047749
1123.298988,-8290.306550,-370.102971,-689.485948
1123.299303,-8882.471304,-666.185348,-766.095498
1123.299619,-8808.450710,74.020594,-383.047749
1123.299935,-9178.553681,0.000000,1225.752797
1123.300251,-9474.636058,962.267725,919.314598
1123.300566,-9400.615463,-222.061783,536.266849
1123.300882,-9696.697840,444.123565,612.876398
1123.301198,-9622.677246,222.061783,842.705048
1123.301514,-10214.842000,74.020594,1225.752797
1123.301830,-9770.718434,0.000000,1225.752797
1123.302145,-9696.697840,-888.247130,766.095498
1123.302461,-9622.677246,-666.185348,383.047749
1123.302777,-10362.883188,-1110.308913,-383.047749
1123.303093,-9474.636058,-1036.288319,229.828649
1123.303409,-9400.615463,-814.226536,-306.438199
1123.303724,-9326.594869,-814.226536,-612.876398
1123.304040,-9696.697840,-222.061783,-689.485948
1123.304356,-9548.656652,-296.082377,-459.657299
1123.304672,-9548.656652,74.020594,-459.657299
1123.304987,-9548.656652,74.020594,-153.219100
1123.305303,-10140.821405,222.061783,0.000000
1123.305619,-9178.553681,518.144159,-459.657299
1123.305935,-10140.821405,444.123565,76.609550
1123.306251,-9918.759623,740.205942,459.657299
1123.306566,-10140.821405,222.061783,306.438199
1123.306882,-10214.842000,0.000000,153.219100
1123.307198,-9548.656652,148.041188,76.609550
1123.307514,-9622.677246,0.000000,0.000000
1123.307829,-10214.842000,-296.082377,0.000000
1123.308145,-9622.677246,-296.082377,-689.485948
1123.308461,-9474.636058,-296.082377,76.609550
1123.308777,-9696.697840,-296.082377,-766.095498
1123.309093,-9844.739029,-222.061783,-919.314598
1123.309408,-9622.677246,-148.041188,-689.485948
1123.309724,-9474.636058,0.000000,-612.876398
1123.310040,-8660.409521,148.041188,-995.924147
1123.310356,-9770.718434,370.102971,-306.438199
1123.310671,-9696.697840,296.082377,-306.438199
1123.310987,-9474.636058,222.061783,-536.266849
1123.311303,-9474.636058,0.000000,-459.657299
1123.311619,-9400.615463,74.020594,-689.485948
1123.311935,-9400.615463,518.144159,-842.705048
1123.312250,-9474.636058,518.144159,-612.876398
1123.312566,-9252.574275,444.123565,-842.705048
1123.312882,-9252.574275,-370.102971,-919.314598
1123.313198,-9622.677246,0.000000,-689.485948
1123.313514,-9622.677246,222.061783,-229.828649
1123.313829,-9770.718434,148.041188,0.000000
1123.314145,-9844.739029,296.082377,153.219100
1123.314461,-9696.697840,0.000000,842.705048
1123.314777,-9548.656652,0.000000,306.438199
1123.315092,-9178.553681,0.000000,383.047749
1123.315408,-9400.615463,0.000000,383.047749
1123.315724,-9326.594869,-1110.308913,-306.438199
1123.316040,-9030.512492,0.000000,0.000000
1123.316356,-9104.533087,0.000000,0.000000
1123.316671,-8956.491898,-148.041188,-536.266849
1123.316987,-9104.533087,0.000000,-612.876398
1123.317303,-9326.594869,74.020594,-842.705048
1123.317619,-9326.594869,74.020594,-383.047749
1123.317934,-9400.615463,444.123565,-459.657299
1123.318250,-9474.636058,592.164754,-306.438199
1123.318566,-9622.677246,1110.308913,76.609550
1123.318882,-9474.636058,740.205942,612.876398
1123.319198,-9400.615463,888.247130,229.828649
1123.319513,-9474.636058,1184.329507,383.047749
1123.319829,-9770.718434,1184.329507,459.657299
1123.320145,-9474.636058,0.000000,306.438199
1123.320461,-9622.677246,740.205942,306.438199
1123.320776,-9696.697840,592.164754,76.609550
1123.321092,-9474.636058,222.061783,0.000000
1123.321408,-9400.615463,222.061783,0.000000
1123.321724,-9400.615463,0.000000,-459.657299
1123.322040,-9030.512492,222.061783,-1225.752797
1123.322355,-9252.574275,148.041188,-995.924147
1123.322671,-9474.636058,444.123565,-1072.533697
1123.322987,-9030.512492,148.041188,-689.485948
1123.323303,-9474.636058,592.164754,-919.314598
1123.323619,-9770.718434,962.267725,-1149.143247
1123.323934,-10140.821405,962.267725,-612.876398
1123.324250,-9918.759623,1110.308913,-229.828649
1123.324566,-10214.842000,1258.350101,-153.219100
1123.324882,-10140.821405,1184.329507,459.657299
1123.325197,-10362.883188,962.267725,536.266849
1123.325513,-10214.842000,888.247130,766.095498
1123.325829,-9770.718434,1702.473667,612.876398
1123.326145,-9844.739029,296.082377,306.438199
1123.326461,-9474.636058,222.061783,-229.828649
1123.326776,-9474.636058,0.000000,-306.438199
1123.327092,-9252.574275,0.000000,-229.828649
1123.327408,-8734.430116,-592.164754,-536.266849
1123.327724,-9252.574275,-962.267725,-995.924147
1123.328039,-9326.594869,-666.185348,-766.095498
1123.328355,-9622.677246,-222.061783,-306.438199
1123.328671,-9474.636058,-592.164754,-153.219100
1123.328987,-9178.553681,-370.102971,229.828649
1123.329303,-9326.594869,0.000000,306.438199
1123.329618,-9844.739029,0.000000,153.219100
1123.329934,-9622.677246,-592.164754,766.095498
1123.330250,-8586.388927,-1184.329507,612.876398
1123.330566,-8882.471304,-962.267725,229.828649
1123.330882,-9400.615463,-1480.411884,459.657299
1123.331197,-9104.533087,-1406.391290,153.219100
1123.331513,-8808.450710,-2072.576638,153.219100
1123.331829,-8882.471304,-1998.556043,153.219100
1123.332145,-8956.491898,-2442.679609,0.000000
1123.332460,-9178.553681,-2146.597232,0.000000
1123.332776,-8882.471304,-2220.617826,306.438199
1123.333092,-8956.491898,-2442.679609,689.485948
1123.333408,-8882.471304,-2368.659014,306.438199
1123.333724,-9326.594869,-2738.761985,612.876398
1123.334039,-9252.574275,-2368.659014,1072.533697
1123.334355,-9252.574275,-2294.638420,842.705048
1123.334671,-9104.533087,-1924.535449,995.924147
1123.334987,-9548.656652,-1998.556043,536.266849
1123.335302,-9326.594869,-1628.453072,536.266849
1123.335618,-9474.636058,-1554.432478,383.047749
1123.335934,-9474.636058,-1184.329507,2068.457845
1123.336250,-9918.759623,-1332.370696,459.657299
1123.336566,-9918.759623,-888.247130,536.266849
1123.336881,-9770.718434,-1036.288319,383.047749
1123.337197,-9844.739029,-518.144159,383.047749
1123.337513,-9918.759623,296.082377,-689.485948
1123.337829,-10362.883188,222.061783,766.095498
1123.338144,-10288.862594,148.041188,995.924147
1123.338460,-10140.821405,0.000000,459.657299
1123.338776,-10288.862594,444.123565,153.219100
1123.339092,-9696.697840,962.267725,459.657299
1123.339408,-10436.903782,888.247130,153.219100
1123.339723,-10140.821405,444.123565,0.000000
1123.340039,-10066.800811,740.205942,0.000000
1123.340355,-10362.883188,888.247130,-536.266849
1123.340671,-10436.903782,666.185348,459.657299
1123.340987,-10214.842000,888.247130,459.657299
1123.341302,-9844.739029,296.082377,0.000000
1123.341618,-9770.718434,0.000000,0.000000
1123.341934,-9400.615463,370.102971,0.000000
1123.342250,-9548.656652,0.000000,76.609550
1123.342565,-9400.615463,0.000000,76.609550
1123.342881,-9178.553681,-296.082377,0.000000
1123.343197,-9326.594869,-222.061783,0.000000
1123.343513,-8956.491898,0.000000,153.219100
1123.343829,-9326.594869,0.000000,229.828649
1123.344144,-9400.615463,0.000000,459.657299
1123.344460,-9400.615463,74.020594,689.485948
1123.344776,-9474.636058,-1480.411884,383.047749
1123.345092,-9178.553681,-296.082377,612.876398
1123.345407,-9030.512492,-296.082377,612.876398
1123.345723,-8956.491898,-666.185348,383.047749
1123.346039,-8882.471304,-814.226536,229.828649
1123.346355,-9178.553681,-370.102971,383.047749
1123.346671,-8660.409521,-1184.329507,536.266849
1123.346986,-8512.368333,-1406.391290,459.657299
1123.347302,-8364.327145,-1554.432478,306.438199
1123.347618,-9178.553681,-888.247130,0.000000
1123.347934,-8586.388927,-1554.432478,153.219100
1123.348249,-8438.347739,-1554.432478,153.219100
1123.348565,-8808.450710,-1480.411884,0.000000
1123.348881,-8586.388927,-1776.494261,229.828649
1123.349197,-8512.368333,-1702.473667,153.219100
1123.349513,-8808.450710,-1406.391290,0.000000
1123.349828,-8956.491898,-1110.308913,153.219100
1123.350144,-9178.553681,-814.226536,612.876398
1123.350460,-9030.512492,-1110.308913,4213.525239
1123.350776,-9326.594869,-1184.329507,306.438199
1123.351092,-9326.594869,-1332.370696,306.438199
1123.351407,-9622.677246,-1406.391290,612.876398
1123.351723,-9474.636058,-1702.473667,459.657299
1123.352039,-8882.471304,-1554.432478,1532.190996
1123.352355,-9474.636058,-1554.432478,612.876398
1123.352670,-9474.636058,-1998.556043,383.047749
1123.352986,-9400.615463,-1998.556043,-153.219100
1123.353302,-9400.615463,-1850.514855,0.000000
1123.353618,-9548.656652,-1924.535449,0.000000
1123.353934,-9770.718434,-1554.432478,153.219100
1123.354249,-9696.697840,-1554.432478,76.609550
1123.354565,-9992.780217,-1036.288319,76.609550
1123.354881,-9770.718434,-1406.391290,-383.047749
1123.355197,-10584.944971,-666.185348,612.876398
1123.355512,-10584.944971,-148.041188,612.876398
1123.355828,-10584.944971,0.000000,919.314598
1123.356144,-10510.924376,-592.164754,536.266849
1123.356460,-10362.883188,74.020594,766.095498
1123.356776,-10658.965565,-222.061783,919.314598
1123.357091,-10510.924376,222.061783,995.924147
1123.357407,-10362.883188,-148.041188,612.876398
1123.357723,-10288.862594,370.102971,689.485948
1123.358039,-10214.842000,74.020594,689.485948
1123.358354,-10584.944971,0.000000,459.657299
1123.358670,-10140.821405,0.000000,306.438199
1123.358986,-10214.842000,0.000000,0.000000
1123.359302,-9918.759623,74.020594,0.000000
1123.359618,-9992.780217,444.123565,-306.438199
1123.359933,-9696.697840,148.041188,0.000000
1123.360249,-10066.800811,296.082377,0.000000
1123.360565,-9400.615463,222.061783,0.000000
1123.360881,-10066.800811,296.082377,0.000000
1123.361197,-9178.553681,222.061783,0.000000
1123.361512,-9844.739029,0.000000,0.000000
1123.361828,-8956.491898,222.061783,0.000000
1123.362144,-9178.553681,-1110.308913,0.000000
1123.362460,-9030.512492,0.000000,306.438199
1123.362775,-9326.594869,-592.164754,229.828649
1123.363091,-9104.533087,-592.164754,459.657299
1123.363407,-8882.471304,-1036.288319,76.609550
1123.363723,-8734.430116,-296.082377,0.000000
1123.364039,-8882.471304,-1110.308913,153.219100
1123.364354,-8512.368333,-1332.370696,0.000000
1123.364670,-8364.327145,-1258.350101,0.000000
1123.364986,-8586.388927,-1184.329507,842.705048
1123.365302,-8438.347739,-888.247130,0.000000
1123.365617,-8364.327145,-740.205942,76.609550
1123.365933,-8512.368333,-444.123565,306.438199
1123.366249,-8660.409521,-814.226536,0.000000
1123.366565,-8068.244768,-444.123565,612.876398
1123.366881,-8956.491898,0.000000,842.705048
1123.367196,-8956.491898,-296.082377,919.314598
1123.367512,-9030.512492,-1258.350101,919.314598
1123.367828,-8586.388927,-2072.576638,229.828649
1123.368144,-7994.224174,-962.267725,536.266849
1123.368459,-8734.430116,-296.082377,536.266849
1123.368775,-9178.553681,-1184.329507,842.705048
1123.369091,-8882.471304,-1628.453072,153.219100
1123.369407,-8290.306550,-1184.329507,229.828649
1123.369723,-9252.574275,-296.082377,229.828649
1123.370038,-9844.739029,-148.041188,766.095498
1123.370354,-9770.718434,-370.102971,689.485948
1123.370670,-9400.615463,-444.123565,689.485948
1123.370986,-9992.780217,-1406.391290,229.828649
1123.371302,-9918.759623,-740.205942,229.828649
1123.371617,-9992.780217,-518.144159,689.485948
1123.371933,-9400.615463,0.000000,383.047749
1123.372249,-9326.594869,2220.617826,-306.438199
1123.372565,-10362.883188,-222.061783,76.609550
1123.372880,-10362.883188,74.020594,919.314598
1123.373196,-10362.883188,148.041188,1225.752797
1123.373512,-10584.944971,-296.082377,1225.752797
1123.373828,-11103.089130,-666.185348,842.705048
1123.374144,-10436.903782,-740.205942,536.266849
1123.374459,-9992.780217,-592.164754,536.266849
1123.374775,-10436.903782,-888.247130,459.657299
1123.375091,-10214.842000,-1480.411884,-229.828649
1123.375407,-10140.821405,-1184.329507,0.000000
1123.375722,-9918.759623,-814.226536,0.000000
1123.376038,-9992.780217,-962.267725,-536.266849
1123.376354,-9992.780217,0.000000,-306.438199
1123.376670,-8956.491898,-444.123565,-612.876398
1123.376986,-10140.821405,-296.082377,-536.266849
1123.377301,-10362.883188,0.000000,0.000000
1123.377617,-10214.842000,148.041188,76.609550
1123.377933,-10436.903782,444.123565,919.314598
1123.378249,-9844.739029,444.123565,0.000000
1123.378564,-9548.656652,518.144159,306.438199
1123.378880,-9770.718434,888.247130,76.609550
1123.379196,-9844.739029,444.123565,306.438199
1123.379512,-8660.409521,0.000000,1149.143247
1123.379828,-9252.574275,-296.082377,0.000000
1123.380143,-9104.533087,-518.144159,-536.266849
1123.380459,-9104.533087,-296.082377,-229.828649
1123.380775,-9178.553681,-148.041188,-306.438199
1123.381091,-9252.574275,74.020594,0.000000
1123.381407,-9030.512492,-518.144159,0.000000
1123.381722,-9326.594869,-296.082377,-229.828649
1123.382038,-9548.656652,0.000000,689.485948
1123.382354,-9474.636058,-1184.329507,1302.362347
1123.382670,-9474.636058,-1332.370696,1378.971896
1123.382985,-8734.430116,-2220.617826,919.314598
1123.383301,-8364.327145,-1998.556043,766.095498
1123.383617,-8364.327145,-1924.535449,1149.143247
1123.383933,-8734.430116,-2220.617826,153.219100
1123.384249,-7698.141797,-2738.761985,-153.219100
1123.384564,-7772.162391,-2220.617826,-612.876398
1123.384880,-8068.244768,-1702.473667,-842.705048
1123.385196,-8956.491898,-1332.370696,0.000000
1123.385512,-8438.347739,-1184.329507,-153.219100
1123.385827,-8734.430116,-444.123565,383.047749
1123.386143,-9622.677246,296.082377,919.314598
1123.386459,-10066.800811,74.020594,1762.019645
1123.386775,-9770.718434,592.164754,1991.848295
1123.387091,-9474.636058,148.041188,2374.896044
1123.387406,-9474.636058,74.020594,1838.629195
1123.387722,-9770.718434,-222.061783,1762.019645
1123.388038,-9400.615463,-740.205942,1762.019645
1123.388354,-8290.306550,-1480.411884,1302.362347
1123.388669,-8586.388927,-1480.411884,153.219100
1123.388985,-9400.615463,-1702.473667,-306.438199
1123.389301,-8734.430116,-1628.453072,-306.438199
1123.389617,-8216.285956,-1702.473667,-1072.533697
1123.389933,-9104.533087,-1184.329507,-1149.143247
1123.390248,-9400.615463,-888.247130,-842.705048
1123.390564,-9696.697840,-518.144159,-536.266849
1123.390880,-9548.656652,0.000000,0.000000
1123.391196,-9400.615463,-370.102971,383.047749
1123.391512,-10066.800811,74.020594,459.657299
1123.391827,-10658.965565,0.000000,766.095498
1123.392143,-10214.842000,666.185348,919.314598
1123.392459,-10288.862594,0.000000,995.924147
1123.392775,-10807.006753,444.123565,612.876398
1123.393090,-10510.924376,-814.226536,612.876398
1123.393406,-10732.986159,-222.061783,383.047749
1123.393722,-10140.821405,-740.205942,536.266849
1123.394038,-10732.986159,-1184.329507,1378.971896
1123.394354,-9844.739029,-888.247130,-306.438199
1123.394669,-10288.862594,-888.247130,-612.876398
1123.394985,-9474.636058,-962.267725,-459.657299
1123.395301,-10288.862594,-1184.329507,-995.924147
1123.395617,-9770.718434,-888.247130,0.000000
1123.395932,-10214.842000,-888.247130,-306.438199
1123.396248,-9474.636058,-222.061783,0.000000
1123.396564,-10214.842000,-444.123565,-229.828649
1123.396880,-9770.718434,296.082377,153.219100
1123.397196,-10140.821405,-518.144159,229.828649
1123.397511,-9770.718434,-296.082377,306.438199
1123.397827,-9696.697840,-592.164754,76.609550
1123.398143,-9548.656652,-1184.329507,229.828649
1123.398459,-9252.574275,-1110.308913,0.000000
1123.398775,-8882.471304,-1258.350101,-229.828649
1123.399090,-9030.512492,-1332.370696,-153.219100
1123.399406,-8882.471304,-888.247130,76.609550
1123.399722,-9030.512492,-1924.535449,689.485948
1123.400038,-8956.491898,-1110.308913,459.657299
1123.400353,-9178.553681,-1184.329507,229.828649
1123.400669,-9178.553681,-1184.329507,229.828649
1123.400985,-9252.574275,-592.164754,919.314598
1123.401301,-9178.553681,-592.164754,766.095498
1123.401617,-9622.677246,-518.144159,995.924147
1123.401932,-9178.553681,-518.144159,842.705048
1123.402248,-9252.574275,-666.185348,995.924147
1123.402564,-9326.594869,-962.267725,995.924147
1123.402880,-9252.574275,-1110.308913,612.876398
1123.403195,-8512.368333,-1480.411884,383.047749
1123.403511,-8438.347739,-1480.411884,153.219100
1123.403827,-8808.450710,-1332.370696,0.000000
1123.404143,-9030.512492,-666.185348,995.924147
1123.404459,-8808.450710,-1184.329507,536.266849
1123.404774,-9030.512492,-1184.329507,459.657299
1123.405090,-9252.574275,-962.267725,536.266849
1123.405406,-9474.636058,-740.205942,1072.533697
1123.405722,-9844.739029,-296.082377,919.314598
1123.406037,-9474.636058,-148.041188,1072.533697
1123.406353,-9696.697840,-296.082377,842.705048
1123.406669,-9622.677246,0.000000,1149.143247
1123.406985,-8882.471304,74.020594,1991.848295
1123.407301,-9252.574275,0.000000,842.705048
1123.407616,-9474.636058,0.000000,689.485948
1123.407932,-9548.656652,148.041188,306.438199
1123.408248,-9400.615463,0.000000,459.657299
1123.408564,-8808.450710,-1628.453072,-689.485948
1123.408880,-9474.636058,-370.102971,0.000000
1123.409195,-9400.615463,-370.102971,-229.828649
1123.409511,-9474.636058,-518.144159,0.000000
1123.409827,-9474.636058,-296.082377,1685.410096
1123.410143,-9474.636058,-296.082377,-306.438199
1123.410458,-9622.677246,-148.041188,0.000000
1123.410774,-9844.739029,-444.123565,76.609550
1123.411090,-9696.697840,-370.102971,153.219100
1123.411406,-9844.739029,-148.041188,612.876398
1123.411722,-9918.759623,-592.164754,306.438199
1123.412037,-9992.780217,-592.164754,536.266849
1123.412353,-9918.759623,-370.102971,229.828649
1123.412669,-9770.718434,-740.205942,76.609550
1123.412985,-9918.759623,-1184.329507,306.438199
1123.413300,-9844.739029,-1110.308913,383.047749
1123.413616,-9844.739029,-1554.432478,229.828649
1123.413932,-9474.636058,-1850.514855,153.219100
1123.414248,-9474.636058,-1776.494261,0.000000
1123.414564,-9400.615463,-1924.535449,153.219100
1123.414879,-9548.656652,-1998.556043,153.219100
1123.415195,-9252.574275,-2072.576638,0.000000
1123.415511,-8808.450710,-2146.597232,-153.219100
1123.415827,-9326.594869,-1628.453072,-766.095498
1123.416142,-9400.615463,-1554.432478,0.000000
1123.416458,-9326.594869,-1554.432478,229.828649
1123.416774,-9252.574275,-1406.391290,0.000000
1123.417090,-9474.636058,-1480.411884,0.000000
1123.417406,-9548.656652,-1184.329507,919.314598
1123.417721,-9696.697840,-1110.308913,536.266849
1123.418037,-9548.656652,-962.267725,459.657299
1123.418353,-9474.636058,-1036.288319,383.047749
1123.418669,-9548.656652,-814.226536,459.657299
1123.418985,-9474.636058,-740.205942,689.485948
1123.419300,-9400.615463,-740.205942,229.828649
1123.419616,-9474.636058,-518.144159,536.266849
1123.419932,-9696.697840,-592.164754,306.438199
1123.420248,-8956.491898,-1258.350101,-1072.533697
1123.420563,-9400.615463,-148.041188,0.000000
1123.420879,-9474.636058,370.102971,0.000000
1123.421195,-10066.800811,518.144159,153.219100
1123.421511,-9622.677246,740.205942,689.485948
1123.421827,-9622.677246,814.226536,459.657299
1123.422142,-9696.697840,1184.329507,612.876398
1123.422458,-10066.800811,1184.329507,536.266849
1123.422774,-9770.718434,888.247130,919.314598
1123.423090,-9696.697840,1332.370696,3524.039291
1123.423405,-9622.677246,666.185348,459.657299
1123.423721,-9770.718434,370.102971,153.219100
1123.424037,-9400.615463,592.164754,0.000000
1123.424353,-9400.615463,666.185348,-229.828649
1123.424669,-9178.553681,814.226536,-383.047749
1123.424984,-9400.615463,888.247130,-536.266849
1123.425300,-9474.636058,1184.329507,-536.266849
1123.425616,-9696.697840,1332.370696,0.000000
1123.425932,-9770.718434,1628.453072,-1378.971896
1123.426247,-9548.656652,888.247130,-306.438199
1123.426563,-9474.636058,814.226536,-459.657299
1123.426879,-9400.615463,1036.288319,-229.828649
1123.427195,-9326.594869,814.226536,-306.438199
1123.427511,-9178.553681,0.000000,-306.438199
1123.427826,-9178.553681,0.000000,-612.876398
1123.428142,-9178.553681,0.000000,-459.657299
1123.428458,-8956.491898,74.020594,-766.095498
1123.428774,-8882.471304,296.082377,0.000000
1123.429090,-9178.553681,148.041188,-612.876398
1123.429405,-9030.512492,-148.041188,-536.266849
1123.429721,-9400.615463,-296.082377,-459.657299
1123.430037,-9400.615463,-518.144159,-153.219100
1123.430353,-10214.842000,222.061783,536.266849
1123.430668,-9326.594869,-888.247130,229.828649
1123.430984,-9326.594869,-962.267725,76.609550
1123.431300,-9178.553681,-1036.288319,76.609550
1123.431616,-8808.450710,-1332.370696,383.047749
1123.431932,-8364.327145,-888.247130,-229.828649
1123.432247,-9030.512492,-1036.288319,-383.047749
1123.432563,-8808.450710,-1184.329507,-919.314598
1123.432879,-9104.533087,-592.164754,-919.314598
1123.433195,-8808.450710,-740.205942,-2145.067394
1123.433510,-9326.594869,-296.082377,-689.485948
1123.433826,-9474.636058,-296.082377,-612.876398
1123.434142,-9622.677246,-444.123565,-306.438199
1123.434458,-9622.677246,0.000000,-229.828649
1123.434774,-9400.615463,0.000000,536.266849
1123.435089,-9992.780217,0.000000,459.657299
1123.435405,-9992.780217,0.000000,153.219100
1123.435721,-9918.759623,-148.041188,153.219100
1123.436037,-9770.718434,-740.205942,459.657299
1123.436353,-9992.780217,-592.164754,0.000000
1123.436668,-9844.739029,-740.205942,-229.828649
1123.436984,-9844.739029,-962.267725,-612.876398
1123.437300,-9992.780217,-962.267725,-842.705048
1123.437616,-9770.718434,-740.205942,-459.657299
1123.437931,-9918.759623,-592.164754,-689.485948
1123.438247,-9844.739029,-370.102971,-842.705048
1123.438563,-9992.780217,0.000000,-766.095498
1123.438879,-10066.800811,296.082377,689.485948
1123.439195,-10288.862594,444.123565,-153.219100
1123.439510,-10214.842000,592.164754,0.000000
1123.439826,-10214.842000,814.226536,229.828649
1123.440142,-10436.903782,888.247130,536.266849
1123.440458,-9326.594869,518.144159,766.095498
1123.440773,-10288.862594,518.144159,536.266849
1123.441089,-10362.883188,592.164754,459.657299
1123.441405,-9992.780217,518.144159,459.657299
1123.441721,-9844.739029,370.102971,229.828649
1123.442037,-9474.636058,74.020594,-153.219100
1123.442352,-9474.636058,74.020594,-306.438199
1123.442668,-9326.594869,222.061783,-842.705048
1123.442984,-9104.533087,370.102971,-919.314598
1123.443300,-8734.430116,222.061783,76.609550
1123.443615,-8956.491898,296.082377,-995.924147
1123.443931,-9252.574275,592.164754,-612.876398
1123.444247,-9474.636058,888.247130,-536.266849
1123.444563,-9252.574275,1036.288319,-383.047749
1123.444879,-9622.677246,1554.432478,-689.485948
1123.445194,-9474.636058,1110.308913,76.609550
1123.445510,-9474.636058,1110.308913,0.000000
1123.445826,-9474.636058,740.205942,536.266849
1123.446142,-9474.636058,444.123565,153.219100
1123.446458,-9030.512492,0.000000,76.609550
1123.446773,-8808.450710,0.000000,0.000000
1123.447089,-8882.471304,-370.102971,-612.876398
1123.447405,-8808.450710,-888.247130,-842.705048
1123.447721,-8808.450710,-592.164754,-995.924147
1123.448036,-8586.388927,-1110.308913,-919.314598
1123.448352,-8808.450710,-962.267725,-995.924147
1123.448668,-8882.471304,-592.164754,-612.876398
1123.448984,-9104.533087,-592.164754,-995.924147
1123.449300,-9104.533087,0.000000,-459.657299
1123.449615,-9030.512492,-518.144159,0.000000
1123.449931,-9326.594869,0.000000,0.000000
1123.450247,-9252.574275,0.000000,306.438199
1123.450563,-9918.759623,1110.308913,-459.657299
1123.450878,-9178.553681,0.000000,383.047749
1123.451194,-9474.636058,0.000000,0.000000
1123.451510,-9252.574275,-592.164754,153.219100
1123.451826,-9474.636058,-222.061783,-383.047749
1123.452142,-9104.533087,-518.144159,-229.828649
1123.452457,-9326.594869,-592.164754,-536.266849
1123.452773,-8882.471304,-814.226536,-459.657299
1123.453089,-9474.636058,-592.164754,-689.485948
1123.453405,-8808.450710,-1110.308913,-536.266849
1123.453720,-9770.718434,-518.144159,-383.047749
1123.454036,-9326.594869,74.020594,0.000000
1123.454352,-10066.800811,-296.082377,0.000000
1123.454668,-9770.718434,148.041188,0.000000
1123.454984,-9992.780217,296.082377,536.266849
1123.455299,-10214.842000,296.082377,612.876398
1123.455615,-10066.800811,-148.041188,229.828649
1123.455931,-9918.759623,74.020594,0.000000
1123.456247,-10288.862594,0.000000,383.047749
1123.456563,-10140.821405,-444.123565,-383.047749
1123.456878,-10214.842000,-148.041188,-306.438199
1123.457194,-10362.883188,-296.082377,-306.438199
1123.457510,-9844.739029,-444.123565,-536.266849
1123.457826,-10658.965565,444.123565,-383.047749
1123.458141,-10288.862594,0.000000,-229.828649
1123.458457,-10288.862594,0.000000,-306.438199
1123.458773,-10140.821405,-740.205942,-612.876398
1123.459089,-10066.800811,296.082377,-153.219100
1123.459405,-10584.944971,1110.308913,76.609550
1123.459720,-10436.903782,0.000000,229.828649
1123.460036,-9918.759623,-370.102971,0.000000
1123.460352,-9474.636058,296.082377,-383.047749
1123.460668,-9918.759623,1406.391290,1608.800546
1123.460983,-10584.944971,74.020594,383.047749
1123.461299,-9548.656652,-962.267725,0.000000
1123.461615,-9104.533087,-1036.288319,-689.485948
1123.461931,-8734.430116,-296.082377,-995.924147
1123.462247,-9104.533087,444.123565,-383.047749
1123.462562,-9400.615463,666.185348,-229.828649
1123.462878,-9178.553681,-518.144159,-612.876398
1123.463194,-8660.409521,-518.144159,-612.876398
1123.463510,-9548.656652,-148.041188,-612.876398
1123.463826,-9326.594869,296.082377,0.000000
1123.464141,-8882.471304,0.000000,-383.047749
1123.464457,-8512.368333,148.041188,-1072.533697
1123.464773,-9030.512492,518.144159,-766.095498
1123.465089,-8660.409521,888.247130,306.438199
1123.465404,-9474.636058,814.226536,612.876398
1123.465720,-9326.594869,222.061783,383.047749
1123.466036,-9178.553681,-666.185348,153.219100
1123.466352,-9400.615463,-296.082377,-153.219100
1123.466668,-8512.368333,-370.102971,229.828649
1123.466983,-8586.388927,-962.267725,-306.438199
1123.467299,-8438.347739,-1480.411884,-766.095498
1123.467615,-8364.327145,-1702.473667,-766.095498
1123.467931,-8438.347739,0.000000,-2374.896044
1123.468246,-9252.574275,0.000000,0.000000
1123.468562,-9252.574275,-814.226536,0.000000
1123.468878,-9104.533087,-444.123565,-459.657299
1123.469194,-9252.574275,0.000000,76.609550
1123.469510,-10362.883188,-296.082377,689.485948
1123.469825,-9474.636058,-740.205942,459.657299
1123.470141,-9030.512492,-222.061783,153.219100
1123.470457,-9548.656652,222.061783,536.266849
1123.470773,-9548.656652,370.102971,-306.438199
1123.471088,-9696.697840,148.041188,229.828649
1123.471404,-9474.636058,0.000000,383.047749
1123.471720,-9622.677246,-370.102971,306.438199
1123.472036,-10140.821405,-148.041188,153.219100
1123.472352,-9844.739029,-296.082377,229.828649
1123.472667,-9474.636058,-1110.308913,0.000000
1123.472983,-8882.471304,-1110.308913,-842.705048
1123.473299,-9400.615463,-592.164754,-919.314598
1123.473615,-9474.636058,74.020594,842.705048
1123.473931,-9474.636058,-222.061783,0.000000
1123.474246,-9696.697840,-592.164754,-612.876398
1123.474562,-9474.636058,-666.185348,-919.314598
1123.474878,-9622.677246,148.041188,-612.876398
1123.475194,-9844.739029,1332.370696,0.000000
1123.475509,-9992.780217,888.247130,76.609550
1123.475825,-10436.903782,0.000000,-229.828649
1123.476141,-9918.759623,370.102971,-153.219100
1123.476457,-10288.862594,1110.308913,229.828649
1123.476773,-11325.150913,1406.391290,459.657299
1123.477088,-10436.903782,-148.041188,76.609550
1123.477404,-9696.697840,0.000000,-689.485948
1123.477720,-9622.677246,518.144159,-612.876398
1123.478036,-10066.800811,-222.061783,0.000000
1123.478351,-9992.780217,-592.164754,-689.485948
1123.478667,-9326.594869,-666.185348,-1225.752797
1123.478983,-9400.615463,-518.144159,-1302.362347
1123.479299,-9844.739029,-370.102971,-1608.800546
1123.479615,-9770.718434,74.020594,-536.266849
1123.479930,-9252.574275,0.000000,-612.876398
1123.480246,-9104.533087,0.000000,-766.095498
1123.480562,-10436.903782,0.000000,-459.657299
1123.480878,-10066.800811,666.185348,459.657299
1123.481193,-9622.677246,666.185348,229.828649
1123.481509,-9918.759623,370.102971,153.219100
1123.481825,-9474.636058,222.061783,76.609550
1123.482141,-9622.677246,0.000000,0.000000
1123.482457,-8586.388927,-444.123565,1149.143247
1123.482772,-9030.512492,-518.144159,-612.876398
1123.483088,-9326.594869,-296.082377,-459.657299
1123.483404,-8808.450710,-444.123565,-689.485948
1123.483720,-9326.594869,-370.102971,-153.219100
1123.484036,-8512.368333,-444.123565,-229.828649
1123.484351,-9252.574275,-814.226536,-229.828649
1123.484667,-8808.450710,74.020594,0.000000
1123.484983,-9030.512492,-148.041188,0.000000
1123.485299,-8882.471304,-222.061783,2451.505594
1123.485614,-8956.491898,-518.144159,0.000000
1123.485930,-9178.553681,0.000000,76.609550
1123.486246,-8956.491898,0.000000,153.219100
1123.486562,-9400.615463,-222.061783,459.657299
1123.486878,-8956.491898,-666.185348,0.000000
1123.487193,-9104.533087,-666.185348,0.000000
1123.487509,-9326.594869,-222.061783,229.828649
1123.487825,-9622.677246,-666.185348,0.000000
1123.488141,-8364.327145,-1036.288319,0.000000
1123.488456,-9178.553681,-444.123565,0.000000
1123.488772,-9474.636058,-296.082377,0.000000
1123.489088,-9992.780217,74.020594,0.000000
1123.489404,-9548.656652,0.000000,536.266849
1123.489720,-10066.800811,148.041188,1072.533697
1123.490035,-9770.718434,0.000000,459.657299
1123.490351,-10066.800811,-370.102971,383.047749
1123.490667,-9474.636058,148.041188,229.828649
1123.490983,-9474.636058,-518.144159,612.876398
1123.491298,-9326.594869,-296.082377,-306.438199
1123.491614,-9474.636058,0.000000,-459.657299
1123.491930,-9696.697840,-666.185348,-229.828649
1123.492246,-9326.594869,-296.082377,-536.266849
1123.492562,-9104.533087,0.000000,-1225.752797
1123.492877,-10066.800811,-370.102971,-612.876398
1123.493193,-9770.718434,74.020594,-383.047749
1123.493509,-9474.636058,0.000000,-612.876398
1123.493825,-9844.739029,296.082377,-229.828649
1123.494141,-9474.636058,888.247130,-612.876398
1123.494456,-9844.739029,592.164754,-383.047749
1123.494772,-10066.800811,444.123565,0.000000
1123.495088,-9770.718434,444.123565,-229.828649
1123.495404,-10214.842000,370.102971,0.000000
1123.495719,-9548.656652,666.185348,-153.219100
1123.496035,-9844.739029,518.144159,-612.876398
1123.496351,-9992.780217,592.164754,-612.876398
1123.496667,-9992.780217,518.144159,-306.438199
1123.496983,-9770.718434,888.247130,306.438199
1123.497298,-9622.677246,592.164754,-229.828649
1123.497614,-9770.718434,592.164754,-229.828649
1123.497930,-9622.677246,222.061783,-383.047749
1123.498246,-9696.697840,148.041188,-1072.533697
1123.498562,-9474.636058,0.000000,0.000000
1123.498877,-9474.636058,-148.041188,-459.657299
1123.499193,-9400.615463,-296.082377,-459.657299
1123.499509,-9400.615463,74.020594,-536.266849
1123.499825,-9030.512492,370.102971,-153.219100
1123.500141,-9474.636058,0.000000,-612.876398
1123.500456,-9400.615463,0.000000,-383.047749
1123.500772,-9548.656652,0.000000,-306.438199
1123.501088,-9474.636058,222.061783,-229.828649
1123.501404,-9326.594869,0.000000,612.876398
1123.501720,-9252.574275,296.082377,76.609550
1123.502036,-9326.594869,222.061783,-229.828649
1123.502351,-9326.594869,222.061783,-306.438199
1123.502667,-9178.553681,0.000000,459.657299
1123.502983,-9400.615463,296.082377,0.000000
1123.503299,-9474.636058,666.185348,76.609550
1123.503615,-9400.615463,740.205942,0.000000
1123.503930,-9622.677246,592.164754,0.000000
1123.504246,-9252.574275,444.123565,-306.438199
1123.504562,-9104.533087,370.102971,0.000000
1123.504878,-9474.636058,592.164754,-153.219100
1123.505194,-8956.491898,148.041188,0.000000
1123.505509,-9104.533087,222.061783,0.000000
1123.505825,-8808.450710,148.041188,-1149.143247
1123.506141,-9030.512492,592.164754,-1072.533697
1123.506457,-9474.636058,592.164754,-689.485948
1123.506773,-9252.574275,444.123565,-536.266849
1123.507088,-8882.471304,962.267725,459.657299
1123.507404,-9474.636058,814.226536,-383.047749
1123.507720,-9770.718434,1036.288319,306.438199
1123.508036,-9992.780217,962.267725,612.876398
1123.508352,-9770.718434,592.164754,383.047749
1123.508667,-9844.739029,814.226536,612.876398
1123.508983,-9696.697840,592.164754,383.047749
1123.509299,-9770.718434,296.082377,612.876398
1123.509615,-9696.697840,74.020594,536.266849
1123.509931,-9474.636058,-370.102971,1149.143247
1123.510246,-9622.677246,222.061783,76.609550
1123.510562,-9548.656652,0.000000,-306.438199
1123.510878,-9474.636058,-222.061783,-306.438199
1123.511194,-9474.636058,0.000000,-459.657299
1123.511510,-9474.636058,-222.061783,0.000000
1123.511825,-9622.677246,74.020594,-459.657299
1123.512141,-9622.677246,296.082377,0.000000
1123.512457,-9622.677246,518.144159,153.219100
1123.512773,-10140.821405,518.144159,536.266849
1123.513089,-10214.842000,-148.041188,919.314598
1123.513404,-9770.718434,0.000000,459.657299
1123.513720,-9622.677246,0.000000,612.876398
1123.514036,-9918.759623,-148.041188,459.657299
1123.514352,-9992.780217,-888.247130,76.609550
1123.514668,-9178.553681,-1258.350101,0.000000
1123.514983,-9178.553681,-1184.329507,-306.438199
1123.515299,-9030.512492,-1184.329507,-536.266849
1123.515615,-9178.553681,-1184.329507,0.000000
1123.515931,-9104.533087,-1776.494261,-229.828649
1123.516247,-9030.512492,-1406.391290,-229.828649
1123.516562,-9178.553681,-1480.411884,-229.828649
1123.516878,-9548.656652,-1406.391290,153.219100
1123.517194,-8956.491898,-1924.535449,1762.019645
1123.517510,-9252.574275,-1998.556043,459.657299
1123.517826,-9252.574275,-2220.617826,536.266849
1123.518141,-8956.491898,-2368.659014,229.828649
1123.518457,-9252.574275,-2072.576638,536.266849
1123.518773,-7994.224174,-2146.597232,612.876398
1123.519089,-9030.512492,-2368.659014,76.609550
1123.519405,-9178.553681,-2146.597232,0.000000
1123.519720,-9400.615463,-2072.576638,0.000000
1123.520036,-9474.636058,-1850.514855,76.609550
1123.520352,-9326.594869,-2146.597232,0.000000
1123.520668,-9548.656652,-1850.514855,0.000000
1123.520984,-9696.697840,-1258.350101,383.047749
1123.521299,-9696.697840,-666.185348,459.657299
1123.521615,-10066.800811,-148.041188,842.705048
1123.521931,-10288.862594,-444.123565,689.485948
1123.522247,-10066.800811,-296.082377,689.485948
1123.522563,-10214.842000,0.000000,612.876398
1123.522878,-10214.842000,518.144159,0.000000
1123.523194,-10140.821405,0.000000,1072.533697
1123.523510,-10140.821405,-222.061783,689.485948
1123.523826,-10140.821405,74.020594,306.438199
1123.524142,-10214.842000,296.082377,229.828649
1123.524457,-9992.780217,74.020594,536.266849
1123.524773,-10066.800811,0.000000,306.438199
1123.525089,-9992.780217,222.061783,459.657299
1123.525405,-9696.697840,148.041188,153.219100
1123.525721,-9844.739029,0.000000,459.657299
1123.526036,-9770.718434,74.020594,306.438199
1123.526352,-9474.636058,0.000000,306.438199
1123.526668,-9548.656652,0.000000,76.609550
1123.526984,-9548.656652,0.000000,536.266849
1123.527300,-9622.677246,74.020594,1302.362347
1123.527615,-9400.615463,370.102971,766.095498
1123.527931,-9548.656652,74.020594,842.705048
1123.528247,-9400.615463,0.000000,1072.533697
1123.528563,-9326.594869,0.000000,536.266849
1123.528879,-9474.636058,0.000000,459.657299
1123.529194,-9030.512492,-370.102971,766.095498
1123.529510,-9326.594869,-740.205942,536.266849
1123.529826,-8882.471304,-888.247130,612.876398
1123.530142,-7698.141797,-1110.308913,76.609550
1123.530458,-9104.533087,-666.185348,689.485948
1123.530773,-8956.491898,-962.267725,459.657299
1123.531089,-8808.450710,-1110.308913,306.438199
1123.531405,-8660.409521,-1036.288319,229.828649
1123.531721,-8956.491898,-1036.288319,383.047749
1123.532037,-8734.430116,-1184.329507,383.047749
1123.532352,-8956.491898,-1184.329507,76.609550
1123.532668,-8882.471304,-1184.329507,383.047749
1123.532984,-8808.450710,-1480.411884,1072.533697
1123.533300,-8660.409521,-1480.411884,-153.219100
1123.533616,-8882.471304,-1554.432478,-229.828649
1123.533931,-8808.450710,-1554.432478,0.000000
1123.534247,-9030.512492,-1628.453072,-306.438199
1123.534563,-9104.533087,-1554.432478,0.000000
1123.534879,-9030.512492,-1258.350101,-383.047749
1123.535195,-9104.533087,-1480.411884,76.609550
1123.535510,-9474.636058,-1480.411884,-153.219100
1123.535826,-9474.636058,-1036.288319,306.438199
1123.536142,-8882.471304,-1110.308913,459.657299
1123.536458,-9696.697840,-962.267725,459.657299
1123.536774,-9696.697840,-1036.288319,536.266849
1123.537089,-9696.697840,-1110.308913,229.828649
1123.537405,-9844.739029,-888.247130,0.000000
1123.537721,-9844.739029,-1110.308913,153.219100
1123.538037,-9622.677246,-1036.288319,76.609550
1123.538353,-9770.718434,-962.267725,0.000000
1123.538668,-9992.780217,-1332.370696,0.000000
1123.538984,-10288.862594,-740.205942,689.485948
1123.539300,-10066.800811,-666.185348,0.000000
1123.539616,-10214.842000,-888.247130,153.219100
1123.539932,-10288.862594,-148.041188,383.047749
1123.540247,-10584.944971,296.082377,76.609550
1123.540563,-10214.842000,-148.041188,995.924147
1123.540879,-10288.862594,-592.164754,766.095498
1123.541195,-10436.903782,-296.082377,842.705048
1123.541511,-10066.800811,-444.123565,766.095498
1123.541826,-10510.924376,-148.041188,766.095498
1123.542142,-10066.800811,-444.123565,766.095498
1123.542458,-10510.924376,0.000000,536.266849
1123.542774,-10066.800811,-370.102971,766.095498
1123.543090,-10362.883188,-148.041188,383.047749
1123.543405,-9252.574275,-296.082377,229.828649
1123.543721,-10214.842000,-296.082377,229.828649
1123.544037,-9622.677246,0.000000,536.266849
1123.544353,-9992.780217,-370.102971,459.657299
1123.544669,-8882.471304,1406.391290,0.000000
1123.544984,-9770.718434,-296.082377,306.438199
1123.545300,-9474.636058,0.000000,612.876398
1123.545616,-9474.636058,-222.061783,0.000000
1123.545932,-9474.636058,-296.082377,229.828649
1123.546248,-9474.636058,-370.102971,0.000000
1123.546563,-9030.512492,-148.041188,229.828649
1123.546879,-9252.574275,-518.144159,306.438199
1123.547195,-8882.471304,-740.205942,76.609550
1123.547511,-9030.512492,-444.123565,229.828649
1123.547827,-9104.533087,-518.144159,0.000000
1123.548142,-8956.491898,-1036.288319,229.828649
1123.548458,-8660.409521,-962.267725,-229.828649
1123.548774,-8882.471304,-222.061783,0.000000
1123.549090,-8956.491898,-962.267725,306.438199
1123.549406,-8808.450710,-888.247130,383.047749
1123.549721,-8734.430116,-592.164754,229.828649
1123.550037,-8808.450710,-370.102971,612.876398
1123.550353,-8882.471304,-888.247130,1149.143247
1123.550669,-8956.491898,-1036.288319,612.876398
1123.550985,-8364.327145,-740.205942,153.219100
1123.551300,-8734.430116,0.000000,229.828649
1123.551616,-9104.533087,-592.164754,306.438199
1123.551932,-9474.636058,-740.205942,153.219100
1123.552248,-8364.327145,-1036.288319,-229.828649
1123.552564,-8438.347739,-1110.308913,-842.705048
1123.552880,-9178.553681,0.000000,0.000000
1123.553195,-9252.574275,-222.061783,459.657299
1123.553511,-8734.430116,-518.144159,0.000000
1123.553827,-9474.636058,-592.164754,383.047749
1123.554143,-10140.821405,-1258.350101,766.095498
1123.554459,-9844.739029,-1036.288319,459.657299
1123.554774,-8142.265362,-1036.288319,2604.724693
1123.555090,-8956.491898,0.000000,-229.828649
1123.555406,-9474.636058,518.144159,-383.047749
1123.555722,-10140.821405,222.061783,459.657299
1123.556038,-9770.718434,0.000000,766.095498
1123.556353,-9992.780217,0.000000,1149.143247
1123.556669,-10436.903782,148.041188,459.657299
1123.556985,-10955.047942,296.082377,1225.752797
1123.557301,-10288.862594,148.041188,1225.752797
1123.557617,-10140.821405,-1036.288319,995.924147
1123.557932,-9844.739029,-1184.329507,306.438199
1123.558248,-10140.821405,-1332.370696,459.657299
1123.558564,-9770.718434,-1036.288319,383.047749
1123.558880,-9548.656652,-1036.288319,0.000000
1123.559196,-10658.965565,518.144159,689.485948
1123.559511,-9548.656652,-518.144159,-153.219100
1123.559827,-10214.842000,-296.082377,0.000000
1123.560143,-10436.903782,-814.226536,0.000000
1123.560459,-10066.800811,-444.123565,306.438199
1123.560775,-9622.677246,0.000000,76.609550
1123.561090,-10732.986159,444.123565,536.266849
1123.561406,-10214.842000,592.164754,536.266849
1123.561722,-9992.780217,148.041188,306.438199
1123.562038,-9770.718434,444.123565,-689.485948
1123.562354,-9770.718434,74.020594,536.266849
1123.562669,-10066.800811,74.020594,919.314598
1123.562985,-9696.697840,-148.041188,229.828649
1123.563301,-9400.615463,-222.061783,0.000000
1123.563617,-9622.677246,0.000000,0.000000
1123.563933,-9622.677246,518.144159,612.876398
1123.564248,-9992.780217,-148.041188,1225.752797
1123.564564,-9770.718434,-1110.308913,919.314598
1123.564880,-9474.636058,-1628.453072,2757.943793
1123.565196,-9178.553681,-1258.350101,306.438199
1123.565512,-8882.471304,-666.185348,612.876398
1123.565827,-8956.491898,-1554.432478,766.095498
1123.566143,-8142.265362,-2294.638420,0.000000
1123.566459,-7994.224174,-2590.720797,-689.485948
1123.566775,-8364.327145,-1406.391290,-766.095498
1123.567091,-9030.512492,-962.267725,0.000000
1123.567406,-8512.368333,-1036.288319,0.000000
1123.567722,-8290.306550,-592.164754,-459.657299
1123.568038,-9030.512492,148.041188,229.828649
1123.568354,-9992.780217,-148.041188,995.924147
1123.568670,-9474.636058,-370.102971,1532.190996
1123.568985,-9326.594869,0.000000,1762.019645
1123.569301,-10510.924376,222.061783,995.924147
1123.569617,-9474.636058,-296.082377,1225.752797
1123.569933,-9474.636058,-370.102971,1762.019645
1123.570249,-8734.430116,-1184.329507,995.924147
1123.570564,-8364.327145,-1258.350101,459.657299
1123.570880,-9474.636058,-1776.494261,229.828649
1123.571196,-9104.533087,-1628.453072,-153.219100
1123.571512,-8364.327145,-1702.473667,0.000000
1123.571828,-8734.430116,-1776.494261,-842.705048
1123.572143,-9178.553681,-1332.370696,-2528.115143
1123.572459,-9252.574275,-962.267725,-229.828649
1123.572775,-9104.533087,-370.102971,0.000000
1123.573091,-9252.574275,-518.144159,76.609550
1123.573407,-9622.677246,0.000000,229.828649
1123.573722,-9992.780217,0.000000,1149.143247
1123.574038,-9918.759623,0.000000,1225.752797
1123.574354,-9474.636058,-370.102971,1149.143247
1123.574670,-10140.821405,-370.102971,995.924147
1123.574986,-9992.780217,0.000000,1225.752797
1123.575301,-10362.883188,-592.164754,842.705048
1123.575617,-9844.739029,-296.082377,1072.533697
1123.575933,-10140.821405,-1110.308913,536.266849
1123.576249,-10214.842000,-1036.288319,306.438199
1123.576565,-9474.636058,-2146.597232,842.705048
1123.576880,-9844.739029,-1036.288319,0.000000
1123.577196,-9844.739029,-592.164754,-229.828649
1123.577512,-9844.739029,-888.247130,-229.828649
1123.577828,-9992.780217,-518.144159,-229.828649
1123.578144,-9918.759623,-740.205942,-306.438199
1123.578459,-10066.800811,-370.102971,0.000000
1123.578775,-9844.739029,0.000000,306.438199
1123.579091,-10066.800811,-518.144159,229.828649
1123.579407,-9548.656652,-666.185348,-306.438199
1123.579723,-9548.656652,-592.164754,153.219100
1123.580038,-9844.739029,-962.267725,76.609550
1123.580354,-10066.800811,-740.205942,76.609550
1123.580670,-9918.759623,-1184.329507,0.000000
1123.580986,-9548.656652,-814.226536,229.828649
1123.581302,-9770.718434,-1036.288319,153.219100
1123.581617,-9622.677246,-1332.370696,229.828649
1123.581933,-9474.636058,-888.247130,459.657299
1123.582249,-9844.739029,-370.102971,536.266849
1123.582565,-9770.718434,-814.226536,229.828649
1123.582881,-9696.697840,-592.164754,229.828649
1123.583196,-9844.739029,-1036.288319,689.485948
1123.583512,-9474.636058,-888.247130,689.485948
1123.583828,-9252.574275,370.102971,689.485948
1123.584144,-9326.594869,-962.267725,229.828649
1123.584460,-9178.553681,-1110.308913,536.266849
1123.584775,-8882.471304,-962.267725,459.657299
1123.585091,-8364.327145,-1184.329507,306.438199
1123.585407,-8734.430116,-1184.329507,-383.047749
1123.585723,-8956.491898,-1184.329507,-383.047749
1123.586039,-8808.450710,-1036.288319,0.000000
1123.586354,-8586.388927,-1036.288319,0.000000
1123.586670,-8808.450710,-888.247130,-1302.362347
1123.586986,-9030.512492,-740.205942,306.438199
1123.587302,-9400.615463,-518.144159,919.314598
1123.587618,-9178.553681,-592.164754,995.924147
1123.587933,-9400.615463,-444.123565,919.314598
1123.588249,-9696.697840,-222.061783,1532.190996
1123.588565,-9770.718434,-518.144159,919.314598
1123.588881,-9178.553681,-740.205942,689.485948
1123.589197,-9104.533087,-592.164754,459.657299
1123.589512,-9030.512492,-814.226536,919.314598
1123.589828,-9104.533087,-666.185348,459.657299
1123.590144,-9104.533087,-518.144159,0.000000
1123.590460,-8956.491898,-592.164754,0.000000
1123.590776,-9474.636058,-370.102971,0.000000
1123.591091,-9844.739029,-666.185348,229.828649
1123.591407,-9622.677246,-518.144159,459.657299
1123.591723,-9474.636058,-740.205942,459.657299
1123.592039,-9474.636058,-740.205942,306.438199
1123.592355,-9696.697840,-444.123565,995.924147
1123.592670,-10140.821405,0.000000,612.876398
1123.592986,-9770.718434,-370.102971,689.485948
1123.593302,-9696.697840,-444.123565,612.876398
1123.593618,-9844.739029,-592.164754,766.095498
1123.593934,-8882.471304,222.061783,1072.533697
1123.594249,-9622.677246,-962.267725,766.095498
1123.594565,-9770.718434,-1332.370696,842.705048
1123.594881,-9622.677246,-1702.473667,612.876398
1123.595197,-9548.656652,-1628.453072,229.828649
1123.595513,-9252.574275,-1554.432478,306.438199
1123.595828,-9400.615463,-1628.453072,76.609550
1123.596144,-9252.574275,-1776.494261,306.438199
1123.596460,-9178.553681,-1628.453072,-229.828649
1123.596776,-10066.800811,-740.205942,689.485948
1123.597092,-9474.636058,-1184.329507,0.000000
1123.597407,-9622.677246,-1036.288319,0.000000
1123.597723,-9474.636058,-1184.329507,0.000000
1123.598039,-9622.677246,-888.247130,153.219100
1123.598355,-9696.697840,-592.164754,612.876398
1123.598671,-9918.759623,-444.123565,459.657299
1123.598986,-10066.800811,-740.205942,459.657299
1123.599302,-9918.759623,-1110.308913,229.828649
1123.599618,-9548.656652,-1554.432478,-536.266849
1123.599934,-9548.656652,0.000000,-306.438199
1123.600250,-9992.780217,0.000000,0.000000
1123.600566,-10140.821405,-370.102971,229.828649
1123.600881,-9696.697840,-962.267725,-229.828649
1123.601197,-10288.862594,-1110.308913,766.095498
1123.601513,-9844.739029,0.000000,-306.438199
1123.601829,-10140.821405,296.082377,0.000000
1123.602145,-9622.677246,74.020594,76.609550
1123.602460,-9548.656652,518.144159,0.000000
1123.602776,-9770.718434,888.247130,153.219100
1123.603092,-10140.821405,518.144159,536.266849
1123.603408,-9992.780217,518.144159,612.876398
1123.603724,-9548.656652,296.082377,76.609550
1123.604040,-8808.450710,148.041188,0.000000
1123.604355,-9474.636058,370.102971,0.000000
1123.604671,-9326.594869,0.000000,-459.657299
1123.604987,-9104.533087,296.082377,-306.438199
1123.605303,-9104.533087,0.000000,-459.657299
1123.605619,-9474.636058,518.144159,-689.485948
1123.605934,-9474.636058,666.185348,-612.876398
1123.606250,-9252.574275,1184.329507,-229.828649
1123.606566,-9400.615463,1184.329507,-306.438199
1123.606882,-9770.718434,1184.329507,766.095498
1123.607198,-9548.656652,1110.308913,459.657299
1123.607514,-9770.718434,1110.308913,689.485948
1123.607829,-9474.636058,666.185348,536.266849
1123.608145,-9474.636058,592.164754,306.438199
1123.608461,-9474.636058,0.000000,1455.581446
1123.608777,-9178.553681,0.000000,0.000000
1123.609093,-8734.430116,-592.164754,-306.438199
1123.609408,-8660.409521,-814.226536,-1225.752797
1123.609724,-8586.388927,-962.267725,-1072.533697
1123.610040,-9178.553681,-444.123565,-842.705048
1123.610356,-9030.512492,-592.164754,-689.485948
1123.610672,-8882.471304,-444.123565,-459.657299
1123.610987,-9252.574275,-296.082377,0.000000
1123.611303,-9548.656652,0.000000,536.266849
1123.611619,-9474.636058,-370.102971,919.314598
1123.611935,-9474.636058,-444.123565,766.095498
1123.612251,-9622.677246,-296.082377,919.314598
1123.612567,-9548.656652,-296.082377,995.924147
1123.612882,-9400.615463,-740.205942,689.485948
1123.613198,-9030.512492,-962.267725,459.657299
1123.613514,-9030.512492,-1184.329507,-306.438199
1123.613830,-9178.553681,-1036.288319,-459.657299
1123.614146,-8438.347739,-1110.308913,-459.657299
1123.614461,-8882.471304,-1036.288319,-1072.533697
1123.614777,-8882.471304,-814.226536,-1302.362347
1123.615093,-9326.594869,-666.185348,-1225.752797
1123.615409,-9548.656652,0.000000,-995.924147
1123.615725,-9030.512492,222.061783,-995.924147
1123.616041,-9844.739029,444.123565,-612.876398
1123.616356,-10066.800811,666.185348,-459.657299
1123.616672,-10362.883188,370.102971,-153.219100
1123.616988,-10140.821405,1184.329507,919.314598
1123.617304,-10362.883188,518.144159,-229.828649
1123.617620,-10510.924376,296.082377,153.219100
1123.617935,-10362.883188,296.082377,0.000000
1123.618251,-10140.821405,148.041188,-459.657299
1123.618567,-9548.656652,-296.082377,-229.828649
1123.618883,-9992.780217,-222.061783,-995.924147
1123.619199,-10066.800811,-370.102971,-1149.143247
1123.619515,-9696.697840,-222.061783,-1225.752797
1123.619830,-9696.697840,0.000000,-1532.190996
1123.620146,-9474.636058,0.000000,-995.924147
1123.620462,-9992.780217,0.000000,-995.924147
1123.620778,-10066.800811,444.123565,-612.876398
1123.621094,-10288.862594,444.123565,-306.438199
1123.621409,-10288.862594,814.226536,-306.438199
1123.621725,-10362.883188,666.185348,229.828649
1123.622041,-10066.800811,814.226536,229.828649
1123.622357,-10214.842000,666.185348,306.438199
1123.622673,-9918.759623,888.247130,153.219100
1123.622988,-9696.697840,444.123565,-153.219100
1123.623304,-9696.697840,444.123565,-153.219100
1123.623620,-9326.594869,296.082377,-383.047749
1123.623936,-8956.491898,148.041188,-689.485948
1123.624252,-8660.409521,518.144159,0.000000
1123.624568,-9178.553681,0.000000,-689.485948
1123.624883,-8882.471304,0.000000,-689.485948
1123.625199,-8956.491898,222.061783,-689.485948
1123.625515,-9252.574275,518.144159,0.000000
1123.625831,-8882.471304,666.185348,229.828649
1123.626147,-9178.553681,444.123565,383.047749
1123.626462,-9400.615463,444.123565,229.828649
1123.626778,-9252.574275,444.123565,536.266849
1123.627094,-9326.594869,370.102971,612.876398
1123.627410,-9178.553681,0.000000,383.047749
1123.627726,-8882.471304,-444.123565,229.828649
1123.628042,-8808.450710,-296.082377,0.000000
1123.628357,-9326.594869,-1036.288319,-383.047749
1123.628673,-8512.368333,-666.185348,-1378.971896
1123.628989,-8734.430116,-1184.329507,-536.266849
1123.629305,-8882.471304,-1110.308913,-459.657299
1123.629621,-8882.471304,-666.185348,-306.438199
1123.629936,-9326.594869,-888.247130,-153.219100
1123.630252,-9030.512492,-370.102971,0.000000
1123.630568,-9326.594869,-370.102971,383.047749
1123.630884,-9622.677246,0.000000,459.657299
1123.631200,-9474.636058,0.000000,536.266849
1123.631516,-9326.594869,0.000000,2068.457845
1123.631831,-9474.636058,148.041188,383.047749
1123.632147,-9474.636058,-222.061783,459.657299
1123.632463,-9474.636058,-222.061783,0.000000
1123.632779,-9474.636058,-444.123565,-153.219100
1123.633095,-9548.656652,-222.061783,-536.266849
1123.633410,-9474.636058,-962.267725,-689.485948
1123.633726,-9474.636058,-370.102971,-1072.533697
1123.634042,-9252.574275,-592.164754,-995.924147
1123.634358,-9400.615463,-148.041188,-1302.362347
1123.634674,-9252.574275,-296.082377,-766.095498
1123.634989,-10214.842000,74.020594,-536.266849
1123.635305,-9622.677246,222.061783,-842.705048
1123.635621,-9844.739029,518.144159,-153.219100
1123.635937,-9622.677246,0.000000,383.047749
1123.636253,-10288.862594,222.061783,153.219100
1123.636569,-9992.780217,740.205942,306.438199
1123.636884,-10436.903782,370.102971,153.219100
1123.637200,-10140.821405,0.000000,0.000000
1123.637516,-10066.800811,0.000000,-229.828649
1123.637832,-9992.780217,0.000000,-153.219100
1123.638148,-9844.739029,-296.082377,-536.266849
1123.638463,-9548.656652,-1332.370696,-1225.752797
1123.638779,-9326.594869,-296.082377,-1072.533697
1123.639095,-9770.718434,148.041188,-536.266849
1123.639411,-10066.800811,-444.123565,-612.876398
1123.639727,-9770.718434,-814.226536,-842.705048
1123.640043,-9696.697840,0.000000,-536.266849
1123.640358,-9622.677246,666.185348,229.828649
1123.640674,-10881.027347,370.102971,306.438199
1123.640990,-10066.800811,-222.061783,306.438199
1123.641306,-9770.718434,0.000000,0.000000
1123.641622,-9400.615463,1628.453072,-536.266849
1123.641937,-10140.821405,814.226536,306.438199
1123.642253,-9992.780217,888.247130,383.047749
1123.642569,-9622.677246,0.000000,306.438199
1123.642885,-9326.594869,-666.185348,-229.828649
1123.643201,-9622.677246,-444.123565,0.000000
1123.643517,-9548.656652,-296.082377,0.000000
1123.643832,-9104.533087,-592.164754,-459.657299
1123.644148,-8512.368333,-888.247130,-842.705048
1123.644464,-8734.430116,-518.144159,-3140.991542
1123.644780,-9030.512492,444.123565,-689.485948
1123.645096,-9104.533087,666.185348,0.000000
1123.645411,-9326.594869,592.164754,612.876398
1123.645727,-9474.636058,0.000000,919.314598
1123.646043,-8364.327145,-148.041188,459.657299
1123.646359,-9030.512492,74.020594,612.876398
1123.646675,-8734.430116,0.000000,919.314598
1123.646991,-9030.512492,-962.267725,0.000000
1123.647306,-8660.409521,-1406.391290,0.000000
1123.647622,-8660.409521,-1258.350101,-153.219100
1123.647938,-8586.388927,-1332.370696,-689.485948
1123.648254,-8808.450710,-1036.288319,-842.705048
1123.648570,-8734.430116,-740.205942,-842.705048
1123.648885,-8364.327145,222.061783,-919.314598
1123.649201,-8956.491898,-296.082377,-995.924147
1123.649517,-9474.636058,74.020594,-536.266849
1123.649833,-9844.739029,518.144159,229.828649
1123.650149,-9918.759623,370.102971,612.876398
1123.650464,-11399.171507,2146.597232,459.657299
1123.650780,-10214.842000,1110.308913,1532.190996
1123.651096,-10362.883188,370.102971,1838.629195
1123.651412,-10066.800811,-444.123565,1455.581446
1123.651728,-9252.574275,-1406.391290,1378.971896
1123.652044,-8660.409521,-1184.329507,-766.095498
1123.652359,-8512.368333,-1332.370696,-1608.800546
1123.652675,-8956.491898,-1184.329507,-1762.019645
1123.652991,-8438.347739,-444.123565,-2145.067394
1123.653307,-8808.450710,-592.164754,-2834.553343
1123.653623,-9474.636058,-740.205942,-1915.238745
1123.653938,-9622.677246,-222.061783,-1302.362347
1123.654254,-10066.800811,592.164754,-766.095498
1123.654570,-10362.883188,1406.391290,229.828649
1123.654886,-11325.150913,1406.391290,536.266849
1123.655202,-10510.924376,962.267725,995.924147
1123.655518,-10214.842000,1036.288319,1149.143247
1123.655833,-10732.986159,1184.329507,1532.190996
1123.656149,-10584.944971,74.020594,689.485948
1123.656465,-10140.821405,0.000000,229.828649
1123.656781,-9178.553681,-148.041188,-689.485948
1123.657097,-9622.677246,-666.185348,-612.876398
1123.657412,-9400.615463,-1258.350101,-1302.362347
1123.657728,-9474.636058,-1036.288319,-2221.676944
1123.658044,-8956.491898,-518.144159,-2221.676944
1123.658360,-9400.615463,-444.123565,-1915.238745
1123.658676,-9770.718434,0.000000,-1455.581446
1123.658992,-9770.718434,296.082377,612.876398
1123.659307,-9400.615463,740.205942,-612.876398
1123.659623,-9844.739029,740.205942,0.000000
1123.659939,-10584.944971,740.205942,689.485948
1123.660255,-10066.800811,1036.288319,995.924147
1123.660571,-9696.697840,1036.288319,1302.362347
1123.660886,-9992.780217,444.123565,842.705048
1123.661202,-9992.780217,222.061783,919.314598
1123.661518,-10214.842000,-222.061783,612.876398
1123.661834,-9326.594869,-740.205942,76.609550
1123.662150,-9252.574275,-1184.329507,-383.047749
1123.662465,-8956.491898,-814.226536,-1225.752797
1123.662781,-9104.533087,-888.247130,-1149.143247
1123.663097,-8660.409521,-370.102971,-1225.752797
1123.663413,-8586.388927,-888.247130,-2374.896044
1123.663729,-9104.533087,74.020594,-919.314598
1123.664045,-8882.471304,-370.102971,-842.705048
1123.664360,-9252.574275,444.123565,-536.266849
1123.664676,-9030.512492,148.041188,76.609550
1123.664992,-9178.553681,740.205942,0.000000
1123.665308,-9030.512492,444.123565,766.095498
1123.665624,-9696.697840,296.082377,919.314598
1123.665939,-9178.553681,74.020594,612.876398
1123.666255,-9918.759623,0.000000,383.047749
1123.666571,-9104.533087,148.041188,153.219100
1123.666887,-9474.636058,-592.164754,0.000000
1123.667203,-8808.450710,-444.123565,-153.219100
1123.667519,-9104.533087,-962.267725,-689.485948
1123.667834,-8808.450710,-666.185348,-1455.581446
1123.668150,-9326.594869,-962.267725,-766.095498
1123.668466,-9030.512492,-592.164754,-612.876398
1123.668782,-9178.553681,0.000000,0.000000
1123.669098,-9252.574275,0.000000,0.000000
1123.669413,-9474.636058,0.000000,1225.752797
1123.669729,-9474.636058,518.144159,536.266849
1123.670045,-9770.718434,0.000000,306.438199
1123.670361,-9400.615463,74.020594,76.609550
1123.670677,-9696.697840,0.000000,612.876398
1123.670993,-9844.739029,222.061783,-229.828649
1123.671308,-9326.594869,0.000000,-153.219100
1123.671624,-9326.594869,0.000000,-459.657299
1123.671940,-9474.636058,-148.041188,-536.266849
1123.672256,-9696.697840,0.000000,-306.438199
1123.672572,-9104.533087,-444.123565,-612.876398
1123.672887,-9696.697840,-222.061783,-766.095498
1123.673203,-9844.739029,0.000000,-612.876398
1123.673519,-9992.780217,148.041188,-153.219100
1123.673835,-9844.739029,0.000000,76.609550
1123.674151,-9918.759623,518.144159,-153.219100
1123.674466,-10214.842000,592.164754,0.000000
1123.674782,-10140.821405,962.267725,306.438199
1123.675098,-10584.944971,2294.638420,-153.219100
1123.675414,-10066.800811,962.267725,0.000000
1123.675730,-9770.718434,962.267725,229.828649
1123.676046,-9696.697840,814.226536,-229.828649
1123.676361,-9622.677246,444.123565,-383.047749
1123.676677,-9548.656652,-370.102971,536.266849
1123.676993,-9400.615463,0.000000,-842.705048
1123.677309,-9474.636058,-370.102971,-919.314598
1123.677625,-9474.636058,-296.082377,-689.485948
1123.677940,-9326.594869,-814.226536,0.000000
1123.678256,-9474.636058,0.000000,-612.876398
1123.678572,-9474.636058,0.000000,-612.876398
1123.678888,-9548.656652,518.144159,-153.219100
1123.679204,-9770.718434,444.123565,0.000000
1123.679520,-9918.759623,592.164754,-229.828649
1123.679835,-9696.697840,370.102971,153.219100
1123.680151,-9622.677246,444.123565,76.609550
1123.680467,-9770.718434,444.123565,76.609550
1123.680783,-9474.636058,444.123565,-153.219100
1123.681099,-9474.636058,518.144159,-383.047749
1123.681414,-9474.636058,518.144159,-459.657299
1123.681730,-9400.615463,444.123565,-383.047749
1123.682046,-9252.574275,666.185348,-689.485948
1123.682362,-8808.450710,740.205942,0.000000
1123.682678,-9178.553681,592.164754,-612.876398
1123.682994,-9326.594869,518.144159,-306.438199
1123.683309,-9474.636058,222.061783,-459.657299
1123.683625,-9178.553681,370.102971,-536.266849
1123.683941,-9474.636058,814.226536,-536.266849
1123.684257,-9474.636058,592.164754,-459.657299
1123.684573,-9400.615463,592.164754,-383.047749
1123.684888,-9326.594869,814.226536,-459.657299
1123.685204,-9400.615463,444.123565,0.000000
1123.685520,-9474.636058,1036.288319,-612.876398
1123.685836,-9622.677246,666.185348,0.000000
1123.686152,-9178.553681,444.123565,-229.828649
1123.686468,-9400.615463,444.123565,0.000000
1123.686783,-9696.697840,0.000000,0.000000
1123.687099,-9622.677246,222.061783,306.438199
1123.687415,-9400.615463,370.102971,306.438199
1123.687731,-9622.677246,0.000000,229.828649
1123.688047,-9104.533087,-148.041188,0.000000
1123.688362,-9474.636058,-148.041188,383.047749
1123.688678,-9400.615463,-222.061783,459.657299
1123.688994,-9326.594869,-148.041188,0.000000
1123.689310,-9400.615463,-518.144159,-306.438199
1123.689626,-9622.677246,0.000000,-306.438199
1123.689941,-9696.697840,0.000000,0.000000
1123.690257,-9474.636058,-222.061783,306.438199
1123.690573,-9474.636058,-222.061783,229.828649
1123.690889,-9474.636058,-370.102971,229.828649
1123.691205,-9622.677246,-296.082377,383.047749
1123.691521,-9696.697840,-444.123565,459.657299
1123.691836,-9696.697840,-518.144159,383.047749
1123.692152,-9622.677246,-814.226536,153.219100
1123.692468,-9474.636058,-1036.288319,459.657299
1123.692784,-9696.697840,-814.226536,0.000000
1123.693100,-9474.636058,-1036.288319,383.047749
1123.693415,-9252.574275,-962.267725,76.609550
1123.693731,-9548.656652,-1036.288319,0.000000
1123.694047,-9474.636058,148.041188,0.000000
1123.694363,-9474.636058,-1184.329507,229.828649
1123.694679,-9474.636058,-1036.288319,306.438199
1123.694995,-9474.636058,-1258.350101,76.609550
1123.695310,-10066.800811,-1702.473667,536.266849
1123.695626,-9400.615463,-1776.494261,76.609550
1123.695942,-9474.636058,-2146.597232,459.657299
1123.696258,-9104.533087,-1924.535449,459.657299
1123.696574,-9400.615463,-1998.556043,0.000000
1123.696889,-9030.512492,-1332.370696,-383.047749
1123.697205,-9104.533087,-2368.659014,-153.219100
1123.697521,-9326.594869,-1998.556043,0.000000
1123.697837,-9474.636058,-1924.535449,-306.438199
1123.698153,-9474.636058,-1628.453072,-766.095498
1123.698468,-9548.656652,-1480.411884,76.609550
1123.698784,-9844.739029,-1332.370696,0.000000
1123.699100,-9844.739029,-1184.329507,76.609550
1123.699416,-9992.780217,-666.185348,229.828649
1123.699732,-10140.821405,-148.041188,612.876398
1123.700048,-10214.842000,-296.082377,612.876398
1123.700363,-10362.883188,-296.082377,689.485948
1123.700679,-10288.862594,-296.082377,536.266849
1123.700995,-9918.759623,-592.164754,842.705048
1123.701311,-9622.677246,0.000000,766.095498
1123.701627,-10066.800811,0.000000,536.266849
1123.701942,-10066.800811,-148.041188,459.657299
1123.702258,-9992.780217,0.000000,153.219100
1123.702574,-9844.739029,370.102971,766.095498
1123.702890,-10066.800811,74.020594,76.609550
1123.703206,-9696.697840,0.000000,383.047749
1123.703521,-9622.677246,0.000000,0.000000
1123.703837,-9400.615463,0.000000,0.000000
1123.704153,-9548.656652,-148.041188,842.705048
1123.704469,-9400.615463,0.000000,383.047749
1123.704785,-9326.594869,0.000000,229.828649
1123.705101,-9400.615463,222.061783,459.657299
1123.705416,-9400.615463,0.000000,-229.828649
1123.705732,-9474.636058,0.000000,689.485948
1123.706048,-9326.594869,0.000000,612.876398
1123.706364,-9252.574275,0.000000,842.705048
1123.706680,-9178.553681,-296.082377,536.266849
1123.706995,-10436.903782,370.102971,306.438199
1123.707311,-8956.491898,-592.164754,689.485948
1123.707627,-9104.533087,-888.247130,766.095498
1123.707943,-9030.512492,-1036.288319,536.266849
1123.708259,-8956.491898,-962.267725,612.876398
1123.708574,-9178.553681,-962.267725,766.095498
1123.708890,-8882.471304,-888.247130,766.095498
1123.709206,-8956.491898,-1332.370696,612.876398
1123.709522,-8808.450710,-1406.391290,536.266849
1123.709838,-9030.512492,-1258.350101,0.000000
1123.710153,-8882.471304,-1332.370696,536.266849
1123.710469,-9104.533087,-1406.391290,153.219100
1123.710785,-8956.491898,-1332.370696,459.657299
