#time,accel_x,accel_y,accel_z
507.960693,-7550.100608,0.000000,0.000000
507.961009,-9400.615463,-444.123565,0.000000
507.961324,-9474.636058,-296.082377,0.000000
507.961640,-9474.636058,-296.082377,0.000000
507.961956,-9474.636058,-296.082377,306.438199
507.962272,-9622.677246,0.000000,0.000000
507.962587,-9474.636058,-222.061783,0.000000
507.962903,-9474.636058,-370.102971,76.609550
507.963219,-9474.636058,-518.144159,0.000000
507.963534,-9326.594869,0.000000,-229.828649
507.963850,-9474.636058,-518.144159,0.000000
507.964166,-9622.677246,-296.082377,0.000000
507.964482,-9474.636058,-370.102971,76.609550
507.964797,-9548.656652,-222.061783,0.000000
507.965113,-9400.615463,-370.102971,-536.266849
507.965429,-9548.656652,-222.061783,0.000000
507.965745,-9474.636058,-444.123565,0.000000
507.966060,-9474.636058,-518.144159,76.609550
507.966376,-9252.574275,-370.102971,1915.238745
507.966692,-9400.615463,-444.123565,306.438199
507.967007,-9474.636058,-370.102971,229.828649
507.967323,-9548.656652,-296.082377,0.000000
507.967639,-9474.636058,-444.123565,76.609550
507.967955,-9474.636058,-518.144159,153.219100
507.968270,-9622.677246,-296.082377,0.000000
507.968586,-9474.636058,-518.144159,-153.219100
507.968902,-9474.636058,-518.144159,153.219100
507.969217,-9770.718434,-444.123565,-459.657299
507.969533,-9400.615463,-370.102971,0.000000
507.969849,-9474.636058,-296.082377,229.828649
507.970165,-9400.615463,0.000000,229.828649
507.970480,-9622.677246,-222.061783,0.000000
507.970796,-9992.780217,518.144159,0.000000
507.971112,-9622.677246,-740.205942,536.266849
507.971427,-9622.677246,-740.205942,536.266849
507.971743,-9252.574275,-370.102971,0.000000
507.972059,-9548.656652,-370.102971,229.828649
507.972375,-9548.656652,-592.164754,0.000000
507.972690,-9326.594869,-1036.288319,0.000000
507.973006,-9178.553681,-1110.308913,-153.219100
507.973322,-9178.553681,-1850.514855,-766.095498
507.973637,-9696.697840,592.164754,-766.095498
507.973953,-9400.615463,-518.144159,-153.219100
507.974269,-9548.656652,-444.123565,383.047749
507.974585,-9548.656652,-518.144159,306.438199
507.974900,-9918.759623,-444.123565,459.657299
507.975216,-9696.697840,0.000000,0.000000
507.975532,-10066.800811,222.061783,-153.219100
507.975847,-9474.636058,296.082377,-153.219100
507.976163,-9400.615463,-222.061783,-306.438199
507.976479,-9326.594869,-1258.350101,-995.924147
507.976795,-9400.615463,-740.205942,0.000000
507.977110,-9696.697840,-1036.288319,0.000000
507.977426,-9474.636058,-1776.494261,153.219100
507.977742,-8882.471304,-1850.514855,-306.438199
507.978058,-7476.080014,-1776.494261,-306.438199
507.978373,-9030.512492,-1110.308913,-383.047749
507.978689,-9844.739029,-1924.535449,0.000000
507.979005,-9178.553681,-2146.597232,0.000000
507.979320,-9252.574275,-2220.617826,-766.095498
507.979636,-9178.553681,-1184.329507,-229.828649
507.979952,-9770.718434,-740.205942,76.609550
507.980268,-9696.697840,-222.061783,689.485948
507.980583,-9622.677246,-592.164754,612.876398
507.980899,-9104.533087,-2738.761985,229.828649
507.981215,-9474.636058,-1554.432478,383.047749
507.981530,-9400.615463,-1702.473667,229.828649
507.981846,-8808.450710,-1406.391290,153.219100
507.982162,-9104.533087,-1850.514855,-229.828649
507.982478,-8438.347739,-1702.473667,306.438199
507.982793,-9252.574275,-1998.556043,0.000000
507.983109,-9178.553681,-2294.638420,306.438199
507.983425,-9400.615463,-1998.556043,153.219100
507.983740,-9252.574275,-1332.370696,2451.505594
507.984056,-9474.636058,-962.267725,76.609550
507.984372,-9622.677246,-666.185348,153.219100
507.984688,-9400.615463,-592.164754,76.609550
507.985003,-9770.718434,-592.164754,306.438199
507.985319,-10362.883188,-814.226536,612.876398
507.985635,-10214.842000,-1110.308913,536.266849
507.985950,-9622.677246,-740.205942,76.609550
507.986266,-9474.636058,-740.205942,153.219100
507.986582,-9252.574275,-1110.308913,-153.219100
507.986898,-9474.636058,-888.247130,-383.047749
507.987213,-9474.636058,-814.226536,0.000000
507.987529,-9548.656652,-1036.288319,0.000000
507.987845,-9844.739029,-962.267725,0.000000
507.988160,-9770.718434,-592.164754,383.047749
507.988476,-9548.656652,-518.144159,0.000000
507.988792,-9770.718434,-296.082377,153.219100
507.989108,-9548.656652,-592.164754,-383.047749
507.989423,-10066.800811,74.020594,-76.609550
507.989739,-9474.636058,-444.123565,383.047749
507.990055,-9844.739029,-148.041188,-153.219100
507.990371,-9548.656652,-592.164754,0.000000
507.990686,-10066.800811,-592.164754,0.000000
507.991002,-8956.491898,-740.205942,-306.438199
507.991318,-9770.718434,-518.144159,306.438199
507.991633,-8734.430116,-296.082377,0.000000
507.991949,-9770.718434,-666.185348,-383.047749
507.992265,-8956.491898,-148.041188,-153.219100
507.992581,-9622.677246,-666.185348,-306.438199
507.992896,-8512.368333,-148.041188,0.000000
507.993212,-10066.800811,-296.082377,383.047749
507.993528,-9178.553681,-370.102971,0.000000
507.993843,-9474.636058,-962.267725,153.219100
507.994159,-9178.553681,-666.185348,0.000000
507.994475,-9178.553681,-370.102971,0.000000
507.994791,-9548.656652,-814.226536,689.485948
507.995106,-9252.574275,-740.205942,459.657299
507.995422,-9474.636058,-1628.453072,536.266849
507.995738,-9030.512492,-518.144159,383.047749
507.996053,-9622.677246,-1554.432478,383.047749
507.996369,-8734.430116,-1332.370696,76.609550
507.996685,-9178.553681,-1554.432478,-306.438199
507.997001,-8734.430116,-1184.329507,0.000000
507.997316,-9474.636058,-962.267725,0.000000
507.997632,-9474.636058,-1480.411884,0.000000
507.997948,-8808.450710,-666.185348,0.000000
507.998263,-9474.636058,-888.247130,383.047749
507.998579,-9622.677246,-592.164754,0.000000
507.998895,-9622.677246,-296.082377,459.657299
507.999211,-9622.677246,-296.082377,766.095498
507.999526,-9474.636058,-962.267725,153.219100
507.999842,-9770.718434,-370.102971,76.609550
508.000158,-9474.636058,-592.164754,306.438199
508.000473,-9474.636058,-444.123565,0.000000
508.000789,-9474.636058,-666.185348,-153.219100
508.001105,-9474.636058,-740.205942,-612.876398
508.001421,-9622.677246,-222.061783,-766.095498
508.001736,-9474.636058,-444.123565,-383.047749
508.002052,-9548.656652,-296.082377,0.000000
508.002368,-9474.636058,148.041188,-229.828649
508.002684,-9770.718434,0.000000,0.000000
508.002999,-9770.718434,814.226536,0.000000
508.003315,-9918.759623,962.267725,0.000000
508.003631,-9770.718434,888.247130,76.609550
508.003946,-10066.800811,888.247130,229.828649
508.004262,-9844.739029,518.144159,76.609550
508.004578,-9770.718434,666.185348,0.000000
508.004894,-9622.677246,518.144159,0.000000
508.005209,-9696.697840,222.061783,-229.828649
508.005525,-9622.677246,962.267725,-306.438199
508.005841,-9474.636058,222.061783,-383.047749
508.006156,-9474.636058,518.144159,0.000000
508.006472,-9474.636058,592.164754,153.219100
508.006788,-10362.883188,592.164754,459.657299
508.007104,-9548.656652,814.226536,383.047749
508.007419,-10288.862594,888.247130,383.047749
508.007735,-9326.594869,740.205942,76.609550
508.008051,-10066.800811,814.226536,0.000000
508.008366,-9548.656652,222.061783,0.000000
508.008682,-9548.656652,444.123565,-153.219100
508.008998,-9400.615463,296.082377,76.609550
508.009314,-9548.656652,296.082377,0.000000
508.009629,-9474.636058,0.000000,153.219100
508.009945,-9474.636058,-444.123565,-306.438199
508.010261,-9030.512492,0.000000,0.000000
508.010576,-9252.574275,370.102971,0.000000
508.010892,-9252.574275,74.020594,306.438199
508.011208,-9252.574275,74.020594,383.047749
508.011524,-9474.636058,0.000000,229.828649
508.011839,-9178.553681,222.061783,383.047749
508.012155,-9474.636058,222.061783,459.657299
508.012471,-9178.553681,592.164754,689.485948
508.012786,-9326.594869,-74.020594,766.095498
508.013102,-9030.512492,0.000000,76.609550
508.013418,-8734.430116,74.020594,-229.828649
508.013734,-9178.553681,0.000000,0.000000
508.014049,-8882.471304,-296.082377,-229.828649
508.014365,-8734.430116,-296.082377,-383.047749
508.014681,-9178.553681,-296.082377,153.219100
508.014997,-9030.512492,-666.185348,0.000000
508.015312,-9252.574275,0.000000,153.219100
508.015628,-9326.594869,-518.144159,229.828649
508.015944,-9178.553681,-666.185348,-459.657299
508.016259,-9178.553681,0.000000,153.219100
508.016575,-9622.677246,-444.123565,0.000000
508.016891,-9178.553681,0.000000,-229.828649
508.017207,-9622.677246,-296.082377,-1072.533697
508.017522,-9474.636058,0.000000,0.000000
508.017838,-9548.656652,0.000000,153.219100
508.018154,-9622.677246,0.000000,459.657299
508.018469,-9844.739029,-370.102971,0.000000
508.018785,-9992.780217,-666.185348,766.095498
508.019101,-9400.615463,-592.164754,0.000000
508.019417,-9992.780217,-740.205942,-153.219100
508.019732,-9696.697840,-518.144159,153.219100
508.020048,-9474.636058,-592.164754,-153.219100
508.020364,-9252.574275,-370.102971,-1225.752797
508.020679,-9844.739029,0.000000,0.000000
508.020995,-9844.739029,296.082377,76.609550
508.021311,-10362.883188,0.000000,229.828649
508.021626,-10362.883188,-74.020594,383.047749
508.021942,-10214.842000,814.226536,153.219100
508.022258,-10584.944971,740.205942,306.438199
508.022573,-10140.821405,666.185348,612.876398
508.022889,-9992.780217,666.185348,306.438199
508.023205,-9770.718434,962.267725,-153.219100
508.023521,-9918.759623,0.000000,-229.828649
508.023836,-9474.636058,296.082377,-229.828649
508.024152,-9622.677246,0.000000,0.000000
508.024468,-9474.636058,-222.061783,-153.219100
508.024783,-10288.862594,0.000000,-689.485948
508.025099,-9622.677246,296.082377,0.000000
508.025415,-9474.636058,0.000000,-153.219100
508.025730,-9548.656652,-222.061783,-306.438199
508.026046,-9474.636058,518.144159,1991.848295
508.026362,-9770.718434,592.164754,0.000000
508.026677,-9770.718434,592.164754,536.266849
508.026993,-9622.677246,518.144159,306.438199
508.027309,-9400.615463,740.205942,459.657299
508.027625,-9844.739029,370.102971,459.657299
508.027940,-9770.718434,-296.082377,153.219100
508.028256,-9474.636058,-296.082377,0.000000
508.028572,-8734.430116,-444.123565,-153.219100
508.028887,-8956.491898,-370.102971,-229.828649
508.029203,-9030.512492,-370.102971,76.609550
508.029519,-8956.491898,0.000000,0.000000
508.029834,-9030.512492,222.061783,0.000000
508.030150,-9326.594869,666.185348,-306.438199
508.030466,-9474.636058,370.102971,995.924147
508.030781,-9178.553681,-370.102971,383.047749
508.031097,-9030.512492,-1110.308913,0.000000
508.031413,-9030.512492,-1258.350101,76.609550
508.031728,-9252.574275,-1184.329507,76.609550
508.032044,-8734.430116,-518.144159,0.000000
508.032360,-8660.409521,-370.102971,76.609550
508.032676,-8734.430116,148.041188,0.000000
508.032991,-9252.574275,222.061783,229.828649
508.033307,-9474.636058,0.000000,153.219100
508.033623,-9326.594869,740.205942,306.438199
508.033938,-9178.553681,444.123565,0.000000
508.034254,-9696.697840,148.041188,0.000000
508.034570,-9918.759623,-148.041188,76.609550
508.034885,-9770.718434,0.000000,995.924147
508.035201,-9252.574275,-518.144159,0.000000
508.035517,-9104.533087,-740.205942,0.000000
508.035832,-9030.512492,-666.185348,-459.657299
508.036148,-9178.553681,-666.185348,2374.896044
508.036464,-9252.574275,-888.247130,0.000000
508.036780,-9474.636058,-814.226536,76.609550
508.037095,-9622.677246,-888.247130,0.000000
508.037411,-10140.821405,-592.164754,229.828649
508.037727,-9548.656652,0.000000,153.219100
508.038042,-9770.718434,-592.164754,76.609550
508.038358,-10066.800811,-444.123565,76.609550
508.038674,-10436.903782,-148.041188,0.000000
508.038989,-9696.697840,0.000000,0.000000
508.039305,-9474.636058,0.000000,-229.828649
508.039621,-9992.780217,0.000000,153.219100
508.039936,-9918.759623,0.000000,153.219100
508.040252,-9844.739029,370.102971,383.047749
508.040568,-9770.718434,222.061783,4136.915689
508.040883,-9918.759623,148.041188,-229.828649
508.041199,-9844.739029,296.082377,0.000000
508.041515,-10140.821405,888.247130,306.438199
508.041831,-10214.842000,1258.350101,-383.047749
508.042146,-9918.759623,2146.597232,-306.438199
508.042462,-10288.862594,1480.411884,0.000000
508.042778,-10436.903782,888.247130,0.000000
508.043093,-9696.697840,0.000000,0.000000
508.043409,-9918.759623,-518.144159,459.657299
508.043725,-9474.636058,-666.185348,0.000000
508.044040,-9770.718434,-740.205942,76.609550
508.044356,-9178.553681,-814.226536,0.000000
508.044672,-9104.533087,-1036.288319,0.000000
508.044987,-9474.636058,-1332.370696,0.000000
508.045303,-9548.656652,-592.164754,0.000000
508.045619,-9548.656652,0.000000,306.438199
508.045935,-9622.677246,-148.041188,153.219100
508.046250,-9400.615463,0.000000,306.438199
508.046566,-9992.780217,0.000000,383.047749
508.046882,-9770.718434,0.000000,229.828649
508.047197,-9030.512492,444.123565,0.000000
508.047513,-8882.471304,444.123565,0.000000
508.047829,-9104.533087,74.020594,2145.067394
508.048144,-8808.450710,74.020594,229.828649
508.048460,-9104.533087,-222.061783,0.000000
508.048776,-8734.430116,-592.164754,0.000000
508.049091,-8808.450710,-666.185348,0.000000
508.049407,-8364.327145,0.000000,-153.219100
508.049723,-8734.430116,0.000000,0.000000
508.050038,-9104.533087,-222.061783,536.266849
508.050354,-9474.636058,-370.102971,536.266849
508.050670,-8734.430116,74.020594,76.609550
508.050986,-9474.636058,370.102971,0.000000
508.051301,-9474.636058,888.247130,153.219100
508.051617,-9770.718434,962.267725,689.485948
508.051933,-9696.697840,888.247130,842.705048
508.052248,-9326.594869,1332.370696,-536.266849
508.052564,-9252.574275,666.185348,229.828649
508.052880,-9400.615463,296.082377,459.657299
508.053195,-9474.636058,74.020594,229.828649
508.053511,-9104.533087,-148.041188,0.000000
508.053827,-8956.491898,74.020594,-536.266849
508.054142,-9252.574275,0.000000,-153.219100
508.054458,-9400.615463,-222.061783,-612.876398
508.054774,-9474.636058,592.164754,0.000000
508.055090,-9548.656652,666.185348,-383.047749
508.055405,-10436.903782,592.164754,76.609550
508.055721,-10584.944971,888.247130,459.657299
508.056037,-10066.800811,1406.391290,306.438199
508.056352,-9918.759623,1332.370696,0.000000
508.056668,-10288.862594,1184.329507,0.000000
508.056984,-10362.883188,1332.370696,306.438199
508.057299,-10214.842000,814.226536,306.438199
508.057615,-9622.677246,74.020594,0.000000
508.057931,-9696.697840,-222.061783,-612.876398
508.058246,-9622.677246,222.061783,0.000000
508.058562,-9474.636058,-148.041188,-459.657299
508.058878,-9474.636058,-296.082377,-536.266849
508.059193,-9104.533087,0.000000,-766.095498
508.059509,-9548.656652,296.082377,153.219100
508.059825,-9696.697840,444.123565,306.438199
508.060141,-9770.718434,0.000000,383.047749
508.060456,-9770.718434,370.102971,383.047749
508.060772,-9770.718434,370.102971,153.219100
508.061088,-9918.759623,518.144159,383.047749
508.061403,-9104.533087,222.061783,153.219100
508.061719,-9696.697840,296.082377,76.609550
508.062035,-9252.574275,-222.061783,306.438199
508.062350,-10288.862594,-518.144159,153.219100
508.062666,-8882.471304,-592.164754,76.609550
508.062982,-9548.656652,-1036.288319,0.000000
508.063297,-8512.368333,-518.144159,-153.219100
508.063613,-9622.677246,-740.205942,76.609550
508.063929,-8808.450710,-1110.308913,153.219100
508.064245,-9400.615463,-1036.288319,153.219100
508.064560,-9030.512492,-814.226536,153.219100
508.064876,-9696.697840,-444.123565,306.438199
508.065192,-9474.636058,-296.082377,459.657299
508.065507,-9474.636058,148.041188,0.000000
508.065823,-9178.553681,0.000000,-153.219100
508.066139,-9400.615463,0.000000,0.000000
508.066454,-9548.656652,-222.061783,0.000000
508.066770,-8660.409521,-592.164754,995.924147
508.067086,-9622.677246,-296.082377,0.000000
508.067401,-9326.594869,0.000000,229.828649
508.067717,-9622.677246,-296.082377,153.219100
508.068033,-9178.553681,148.041188,-459.657299
508.068348,-9252.574275,-148.041188,0.000000
508.068664,-9696.697840,-296.082377,0.000000
508.068980,-9474.636058,0.000000,153.219100
508.069296,-9696.697840,222.061783,0.000000
508.069611,-9770.718434,0.000000,766.095498
508.069927,-9548.656652,592.164754,0.000000
508.070243,-10066.800811,518.144159,229.828649
508.070558,-9770.718434,370.102971,153.219100
508.070874,-9622.677246,814.226536,0.000000
508.071190,-9696.697840,1184.329507,0.000000
508.071505,-9474.636058,888.247130,0.000000
508.071821,-9992.780217,1184.329507,153.219100
508.072137,-9326.594869,1036.288319,229.828649
508.072452,-9770.718434,666.185348,-229.828649
508.072768,-9770.718434,814.226536,0.000000
508.073084,-9474.636058,814.226536,-383.047749
508.073400,-9622.677246,1332.370696,-383.047749
508.073715,-9918.759623,444.123565,-306.438199
508.074031,-10140.821405,296.082377,919.314598
508.074347,-9326.594869,592.164754,-383.047749
508.074662,-9844.739029,1184.329507,153.219100
508.074978,-10288.862594,1184.329507,153.219100
508.075294,-9844.739029,888.247130,0.000000
508.075609,-9622.677246,888.247130,459.657299
508.075925,-9992.780217,666.185348,153.219100
508.076241,-9770.718434,296.082377,153.219100
508.076556,-9918.759623,296.082377,-153.219100
508.076872,-9178.553681,0.000000,1072.533697
508.077188,-9474.636058,0.000000,-153.219100
508.077503,-9400.615463,0.000000,0.000000
508.077819,-9918.759623,-222.061783,0.000000
508.078135,-9030.512492,-296.082377,0.000000
508.078451,-8660.409521,-444.123565,153.219100
508.078766,-9474.636058,0.000000,229.828649
508.079082,-9622.677246,-592.164754,229.828649
508.079398,-8956.491898,-592.164754,76.609550
508.079713,-9030.512492,-814.226536,-383.047749
508.080029,-9030.512492,-740.205942,76.609550
508.080345,-9474.636058,-962.267725,459.657299
508.080660,-9252.574275,-1036.288319,536.266849
508.080976,-9178.553681,-888.247130,459.657299
508.081292,-9696.697840,-296.082377,0.000000
508.081607,-9326.594869,-740.205942,459.657299
508.081923,-9326.594869,-740.205942,306.438199
508.082239,-9030.512492,-666.185348,153.219100
508.082555,-9178.553681,-518.144159,-612.876398
508.082870,-9474.636058,-666.185348,76.609550
508.083186,-9178.553681,-296.082377,612.876398
508.083502,-9326.594869,-296.082377,459.657299
508.083817,-9104.533087,-740.205942,383.047749
508.084133,-8808.450710,-592.164754,306.438199
508.084449,-9252.574275,0.000000,229.828649
508.084764,-9030.512492,-148.041188,0.000000
508.085080,-9104.533087,-444.123565,-459.657299
508.085396,-9252.574275,-370.102971,-842.705048
508.085711,-9474.636058,-148.041188,-766.095498
508.086027,-9770.718434,-592.164754,-383.047749
508.086343,-9622.677246,-592.164754,-766.095498
508.086658,-9918.759623,-518.144159,-383.047749
508.086974,-10436.903782,-1036.288319,0.000000
508.087290,-9474.636058,-444.123565,0.000000
508.087606,-10066.800811,-296.082377,459.657299
508.087921,-10362.883188,-1258.350101,612.876398
508.088237,-9770.718434,-1110.308913,459.657299
508.088553,-10066.800811,0.000000,-383.047749
508.088868,-10066.800811,0.000000,612.876398
508.089184,-9918.759623,-666.185348,153.219100
508.089500,-10066.800811,-666.185348,0.000000
508.089815,-9622.677246,-1184.329507,-153.219100
508.090131,-9474.636058,-1702.473667,-612.876398
508.090447,-9400.615463,-2368.659014,-2145.067394
508.090762,-9030.512492,-1776.494261,-2068.457845
508.091078,-9326.594869,-1184.329507,0.000000
508.091394,-9770.718434,-1184.329507,1302.362347
508.091710,-9178.553681,-666.185348,612.876398
508.092025,-9622.677246,-222.061783,612.876398
508.092341,-9622.677246,-518.144159,0.000000
508.092657,-9992.780217,-222.061783,153.219100
508.092972,-10140.821405,222.061783,919.314598
508.093288,-9992.780217,-888.247130,766.095498
508.093604,-9992.780217,-962.267725,0.000000
508.093919,-9400.615463,-666.185348,-306.438199
508.094235,-9474.636058,222.061783,-153.219100
508.094551,-8882.471304,-740.205942,-153.219100
508.094866,-9252.574275,-1258.350101,-153.219100
508.095182,-9030.512492,-962.267725,0.000000
508.095498,-9030.512492,-1554.432478,-306.438199
508.095813,-9474.636058,-1332.370696,-229.828649
508.096129,-8882.471304,-814.226536,76.609550
508.096445,-9030.512492,-1184.329507,-383.047749
508.096761,-9400.615463,-1036.288319,-153.219100
508.097076,-8956.491898,-814.226536,0.000000
508.097392,-9400.615463,0.000000,229.828649
508.097708,-10066.800811,-888.247130,459.657299
508.098023,-10140.821405,-814.226536,383.047749
508.098339,-9844.739029,0.000000,383.047749
508.098655,-10066.800811,-444.123565,766.095498
508.098970,-9474.636058,-222.061783,306.438199
508.099286,-9252.574275,-444.123565,0.000000
508.099602,-9252.574275,-518.144159,-459.657299
508.099917,-9474.636058,-1110.308913,-306.438199
508.100233,-9474.636058,-888.247130,229.828649
508.100549,-9030.512492,-888.247130,0.000000
508.100865,-9326.594869,-888.247130,-306.438199
508.101180,-9178.553681,-296.082377,-536.266849
508.101496,-10066.800811,370.102971,766.095498
508.101812,-9252.574275,0.000000,0.000000
508.102127,-9178.553681,-296.082377,0.000000
508.102443,-9178.553681,-814.226536,0.000000
508.102759,-8956.491898,-592.164754,76.609550
508.103074,-9474.636058,-592.164754,459.657299
508.103390,-9030.512492,-740.205942,76.609550
508.103706,-8882.471304,0.000000,0.000000
508.104021,-9252.574275,-444.123565,383.047749
508.104337,-9474.636058,-518.144159,153.219100
508.104653,-9252.574275,-296.082377,229.828649
508.104968,-9622.677246,-740.205942,76.609550
508.105284,-9622.677246,-814.226536,229.828649
508.105600,-9770.718434,-1258.350101,306.438199
508.105916,-9770.718434,-1406.391290,612.876398
508.106231,-9252.574275,-1480.411884,-306.438199
508.106547,-9548.656652,-1702.473667,-229.828649
508.106863,-9326.594869,-814.226536,536.266849
508.107178,-10214.842000,-962.267725,306.438199
508.107494,-9918.759623,-518.144159,383.047749
508.107810,-10288.862594,-518.144159,383.047749
508.108125,-9474.636058,-814.226536,459.657299
508.108441,-10140.821405,-444.123565,-229.828649
508.108757,-9400.615463,-814.226536,1149.143247
508.109072,-10066.800811,-740.205942,0.000000
508.109388,-9548.656652,-1036.288319,0.000000
508.109704,-10362.883188,-1184.329507,-306.438199
508.110020,-9400.615463,-962.267725,-383.047749
508.110335,-9770.718434,-1258.350101,-612.876398
508.110651,-9474.636058,-592.164754,-306.438199
508.110967,-10066.800811,-1110.308913,0.000000
508.111282,-9400.615463,-814.226536,-153.219100
508.111598,-9548.656652,-1480.411884,1225.752797
508.111914,-9696.697840,-888.247130,0.000000
508.112229,-9770.718434,-1110.308913,153.219100
508.112545,-9474.636058,0.000000,459.657299
508.112861,-9474.636058,-518.144159,306.438199
508.113176,-9326.594869,-296.082377,1225.752797
508.113492,-9548.656652,-296.082377,229.828649
508.113808,-9622.677246,-370.102971,459.657299
508.114123,-9252.574275,-592.164754,76.609550
508.114439,-9474.636058,0.000000,-612.876398
508.114755,-9104.533087,-518.144159,-383.047749
508.115071,-8956.491898,-740.205942,-459.657299
508.115386,-8882.471304,-518.144159,-612.876398
508.115702,-9178.553681,-888.247130,-306.438199
508.116018,-9474.636058,-888.247130,0.000000
508.116333,-9326.594869,-1036.288319,383.047749
508.116649,-9548.656652,-1110.308913,383.047749
508.116965,-9400.615463,-1110.308913,0.000000
508.117280,-9104.533087,-962.267725,306.438199
508.117596,-9474.636058,-370.102971,153.219100
508.117912,-9474.636058,-296.082377,153.219100
508.118227,-9400.615463,-444.123565,459.657299
508.118543,-9622.677246,-666.185348,76.609550
508.118859,-9622.677246,-148.041188,306.438199
508.119174,-9548.656652,-962.267725,383.047749
508.119490,-9326.594869,-296.082377,0.000000
508.119806,-9474.636058,-222.061783,0.000000
508.120121,-9252.574275,-740.205942,0.000000
508.120437,-9178.553681,-962.267725,76.609550
508.120753,-9474.636058,-740.205942,0.000000
508.121068,-9252.574275,-888.247130,0.000000
508.121384,-9696.697840,-666.185348,0.000000
508.121700,-9400.615463,-814.226536,1149.143247
508.122015,-9252.574275,-666.185348,612.876398
508.122331,-9400.615463,-740.205942,-383.047749
508.122647,-9474.636058,-370.102971,-383.047749
508.122962,-9622.677246,-370.102971,0.000000
508.123278,-8808.450710,-592.164754,76.609550
508.123594,-9622.677246,-444.123565,0.000000
508.123909,-9770.718434,74.020594,0.000000
508.124225,-9622.677246,296.082377,383.047749
508.124541,-9548.656652,-518.144159,383.047749
508.124856,-9030.512492,-1110.308913,-536.266849
508.125172,-9178.553681,-814.226536,-459.657299
508.125488,-9326.594869,-148.041188,76.609550
508.125803,-9474.636058,-1036.288319,229.828649
508.126119,-9104.533087,-888.247130,-306.438199
508.126435,-8956.491898,-148.041188,306.438199
508.126750,-9622.677246,-740.205942,76.609550
508.127066,-9992.780217,-1406.391290,229.828649
508.127382,-9474.636058,-1184.329507,0.000000
508.127697,-8956.491898,-1702.473667,-689.485948
508.128013,-9400.615463,-814.226536,-229.828649
508.128329,-9844.739029,-222.061783,0.000000
508.128644,-9844.739029,0.000000,153.219100
508.128960,-9844.739029,-222.061783,153.219100
508.129276,-9548.656652,-740.205942,0.000000
508.129591,-10066.800811,-740.205942,-229.828649
508.129907,-9696.697840,-1258.350101,229.828649
508.130223,-9252.574275,-1776.494261,153.219100
508.130538,-9622.677246,-2368.659014,0.000000
508.130854,-9548.656652,-2294.638420,0.000000
508.131170,-9474.636058,-1850.514855,229.828649
508.131485,-9326.594869,-1480.411884,76.609550
508.131801,-9400.615463,-1110.308913,0.000000
508.132117,-9400.615463,-296.082377,0.000000
508.132432,-10140.821405,518.144159,306.438199
508.132748,-9992.780217,518.144159,153.219100
508.133064,-9992.780217,1184.329507,153.219100
508.133379,-9474.636058,1406.391290,-536.266849
508.133695,-9992.780217,740.205942,229.828649
508.134011,-9918.759623,222.061783,-536.266849
508.134326,-9474.636058,-148.041188,-306.438199
508.134642,-8956.491898,-888.247130,-383.047749
508.134958,-9400.615463,-1850.514855,-153.219100
508.135273,-8808.450710,-2220.617826,0.000000
508.135589,-9030.512492,-1628.453072,0.000000
508.135904,-9030.512492,-1406.391290,306.438199
508.136220,-9030.512492,-370.102971,689.485948
508.136536,-9474.636058,370.102971,229.828649
508.136851,-9770.718434,814.226536,0.000000
508.137167,-10584.944971,1184.329507,0.000000
508.137483,-10362.883188,740.205942,76.609550
508.137798,-9918.759623,1258.350101,-1072.533697
508.138114,-10214.842000,296.082377,229.828649
508.138430,-9770.718434,-222.061783,0.000000
508.138745,-9252.574275,-1110.308913,0.000000
508.139061,-8808.450710,-1554.432478,-383.047749
508.139377,-8364.327145,-2294.638420,76.609550
508.139692,-8290.306550,-2516.700203,-153.219100
508.140008,-8586.388927,-2368.659014,0.000000
508.140324,-8956.491898,-2294.638420,153.219100
508.140639,-9030.512492,-888.247130,1532.190996
508.140955,-9326.594869,148.041188,383.047749
508.141271,-9992.780217,592.164754,229.828649
508.141586,-10066.800811,814.226536,0.000000
508.141902,-10288.862594,814.226536,0.000000
508.142218,-10140.821405,296.082377,76.609550
508.142533,-9844.739029,0.000000,0.000000
508.142849,-9770.718434,-444.123565,0.000000
508.143165,-9252.574275,-740.205942,76.609550
508.143480,-8438.347739,-1480.411884,0.000000
508.143796,-8290.306550,-1924.535449,0.000000
508.144112,-8586.388927,-1998.556043,0.000000
508.144427,-8660.409521,-1776.494261,0.000000
508.144743,-9104.533087,-1406.391290,0.000000
508.145059,-9622.677246,-1924.535449,-383.047749
508.145374,-9474.636058,-370.102971,229.828649
508.145690,-10066.800811,740.205942,153.219100
508.146006,-10584.944971,148.041188,536.266849
508.146321,-10362.883188,0.000000,153.219100
508.146637,-9474.636058,0.000000,-383.047749
508.146953,-9770.718434,0.000000,0.000000
508.147268,-9474.636058,-370.102971,0.000000
508.147584,-9992.780217,-1184.329507,0.000000
508.147900,-8660.409521,-1184.329507,766.095498
508.148215,-9104.533087,-1850.514855,-153.219100
508.148531,-8882.471304,-1776.494261,0.000000
508.148847,-9696.697840,-1924.535449,153.219100
508.149162,-9474.636058,-1850.514855,536.266849
508.149478,-9548.656652,-2294.638420,0.000000
508.149794,-9548.656652,-1628.453072,-229.828649
508.150109,-9770.718434,-1184.329507,0.000000
508.150425,-9844.739029,-740.205942,0.000000
508.150741,-10066.800811,370.102971,-536.266849
508.151056,-9918.759623,0.000000,-383.047749
508.151372,-9844.739029,0.000000,0.000000
508.151688,-9696.697840,-296.082377,0.000000
508.152003,-9622.677246,-592.164754,0.000000
508.152319,-9326.594869,444.123565,-459.657299
508.152635,-9326.594869,-740.205942,-153.219100
508.152950,-9474.636058,-740.205942,0.000000
508.153266,-9474.636058,-1702.473667,76.609550
508.153582,-9252.574275,-1924.535449,0.000000
508.153897,-9622.677246,-1998.556043,-153.219100
508.154213,-9474.636058,-2368.659014,-383.047749
508.154529,-9400.615463,-1702.473667,-153.219100
508.154844,-9400.615463,-1110.308913,-229.828649
508.155160,-9844.739029,-740.205942,689.485948
508.155476,-9326.594869,-296.082377,-306.438199
508.155791,-9918.759623,296.082377,306.438199
508.156107,-9918.759623,370.102971,612.876398
508.156423,-9770.718434,0.000000,689.485948
508.156738,-10214.842000,0.000000,229.828649
508.157054,-9474.636058,-444.123565,229.828649
508.157370,-9178.553681,-666.185348,153.219100
508.157685,-9178.553681,-1554.432478,-306.438199
508.158001,-9178.553681,-1776.494261,-306.438199
508.158317,-9104.533087,-1702.473667,-383.047749
508.158632,-9474.636058,-1998.556043,-383.047749
508.158948,-8808.450710,-1998.556043,-689.485948
508.159264,-9252.574275,-1554.432478,-536.266849
508.159579,-9030.512492,-592.164754,-919.314598
508.159895,-9622.677246,0.000000,0.000000
508.160211,-9844.739029,0.000000,76.609550
508.160526,-10066.800811,296.082377,766.095498
508.160842,-10288.862594,666.185348,1455.581446
508.161158,-10658.965565,1036.288319,1991.848295
508.161473,-10214.842000,0.000000,995.924147
508.161789,-9622.677246,444.123565,-383.047749
508.162105,-8882.471304,74.020594,-229.828649
508.162420,-9474.636058,-962.267725,-842.705048
508.162736,-8586.388927,-1184.329507,-536.266849
508.163052,-9104.533087,-1184.329507,-536.266849
508.163367,-8882.471304,-1332.370696,0.000000
508.163683,-9326.594869,-1480.411884,153.219100
508.163998,-9326.594869,-962.267725,-383.047749
508.164314,-8734.430116,-296.082377,0.000000
508.164630,-9474.636058,0.000000,153.219100
508.164945,-9474.636058,0.000000,229.828649
508.165261,-10066.800811,-222.061783,-995.924147
508.165577,-9400.615463,444.123565,459.657299
508.165892,-9992.780217,0.000000,0.000000
508.166208,-9844.739029,0.000000,76.609550
508.166524,-9770.718434,74.020594,536.266849
508.166839,-9104.533087,0.000000,919.314598
508.167155,-8808.450710,-666.185348,76.609550
508.167471,-9400.615463,-1258.350101,76.609550
508.167786,-9030.512492,-1628.453072,-153.219100
508.168102,-8882.471304,-1110.308913,0.000000
508.168418,-9400.615463,-1110.308913,306.438199
508.168733,-9252.574275,-1554.432478,0.000000
508.169049,-9178.553681,-1332.370696,0.000000
508.169365,-9474.636058,-1332.370696,0.000000
508.169680,-9474.636058,-1110.308913,383.047749
508.169996,-9622.677246,-962.267725,76.609550
508.170312,-9622.677246,-962.267725,76.609550
508.170627,-9622.677246,-740.205942,459.657299
508.170943,-9548.656652,-1480.411884,153.219100
508.171259,-9400.615463,-1406.391290,76.609550
508.171574,-9474.636058,-1184.329507,0.000000
508.171890,-9474.636058,-1628.453072,0.000000
508.172206,-9104.533087,-1924.535449,-383.047749
508.172521,-8956.491898,-1924.535449,-383.047749
508.172837,-9474.636058,-1924.535449,-229.828649
508.173153,-9474.636058,-1480.411884,0.000000
508.173468,-9622.677246,-1702.473667,229.828649
508.173784,-9770.718434,-1332.370696,383.047749
508.174100,-10436.903782,-1110.308913,536.266849
508.174415,-9992.780217,-1110.308913,153.219100
508.174731,-9918.759623,-370.102971,383.047749
508.175047,-9918.759623,-444.123565,306.438199
508.175362,-9992.780217,-296.082377,612.876398
508.175678,-10214.842000,-444.123565,306.438199
508.175994,-9770.718434,-592.164754,0.000000
508.176309,-9474.636058,-962.267725,-229.828649
508.176625,-9548.656652,-518.144159,0.000000
508.176941,-9474.636058,-222.061783,-229.828649
508.177256,-9548.656652,-666.185348,-766.095498
508.177572,-9400.615463,-888.247130,-766.095498
508.177888,-9474.636058,-666.185348,-689.485948
508.178203,-9992.780217,-888.247130,-306.438199
508.178519,-10066.800811,370.102971,-612.876398
508.178835,-10066.800811,666.185348,459.657299
508.179150,-10362.883188,370.102971,842.705048
508.179466,-9844.739029,148.041188,689.485948
508.179782,-10140.821405,222.061783,-842.705048
508.180097,-9548.656652,814.226536,-383.047749
508.180413,-10214.842000,888.247130,383.047749
508.180729,-10214.842000,222.061783,306.438199
508.181044,-9696.697840,370.102971,0.000000
508.181360,-9770.718434,74.020594,-306.438199
508.181676,-9844.739029,-296.082377,-229.828649
508.181991,-9252.574275,0.000000,153.219100
508.182307,-9326.594869,-148.041188,153.219100
508.182623,-9252.574275,-518.144159,153.219100
508.182938,-9326.594869,-1184.329507,306.438199
508.183254,-9400.615463,-1702.473667,-153.219100
508.183570,-9178.553681,-1554.432478,0.000000
508.183885,-8808.450710,-1924.535449,-689.485948
508.184201,-8956.491898,-962.267725,459.657299
508.184517,-9400.615463,-1110.308913,-229.828649
508.184832,-9030.512492,-666.185348,-306.438199
508.185148,-8956.491898,0.000000,-383.047749
508.185464,-9326.594869,222.061783,0.000000
508.185779,-9474.636058,518.144159,306.438199
508.186095,-9104.533087,1332.370696,306.438199
508.186411,-9474.636058,1406.391290,536.266849
508.186726,-9178.553681,888.247130,536.266849
508.187042,-9474.636058,222.061783,1532.190996
508.187358,-8956.491898,0.000000,612.876398
508.187673,-8808.450710,-296.082377,229.828649
508.187989,-8586.388927,-666.185348,0.000000
508.188305,-8882.471304,-370.102971,0.000000
508.188620,-8586.388927,-1110.308913,-153.219100
508.188936,-9178.553681,-962.267725,-383.047749
508.189252,-9252.574275,-1406.391290,-229.828649
508.189567,-9474.636058,-888.247130,0.000000
508.189883,-9474.636058,0.000000,-229.828649
508.190199,-9252.574275,518.144159,0.000000
508.190514,-9844.739029,814.226536,76.609550
508.190830,-10214.842000,1036.288319,612.876398
508.191146,-10436.903782,1184.329507,1149.143247
508.191461,-10732.986159,1480.411884,1302.362347
508.191777,-10066.800811,814.226536,1302.362347
508.192093,-10140.821405,518.144159,689.485948
508.192408,-9770.718434,592.164754,0.000000
508.192724,-9400.615463,740.205942,0.000000
508.193039,-9992.780217,148.041188,0.000000
508.193355,-9474.636058,-148.041188,0.000000
508.193671,-9770.718434,0.000000,76.609550
508.193986,-9770.718434,-222.061783,0.000000
508.194302,-9696.697840,0.000000,383.047749
508.194618,-10140.821405,518.144159,-229.828649
508.194933,-9844.739029,1184.329507,-306.438199
508.195249,-9326.594869,444.123565,-229.828649
508.195565,-10140.821405,296.082377,-459.657299
508.195880,-9918.759623,592.164754,1302.362347
508.196196,-9696.697840,148.041188,0.000000
508.196512,-9548.656652,666.185348,76.609550
508.196827,-10140.821405,222.061783,153.219100
508.197143,-9326.594869,148.041188,306.438199
508.197459,-9770.718434,-222.061783,306.438199
508.197774,-9474.636058,-444.123565,383.047749
508.198090,-9548.656652,-222.061783,459.657299
508.198406,-9474.636058,0.000000,459.657299
508.198721,-9474.636058,0.000000,919.314598
508.199037,-9400.615463,0.000000,76.609550
508.199353,-9326.594869,0.000000,0.000000
508.199668,-9252.574275,296.082377,0.000000
508.199984,-9770.718434,370.102971,0.000000
508.200300,-10066.800811,222.061783,229.828649
508.200615,-9474.636058,74.020594,0.000000
508.200931,-9696.697840,0.000000,0.000000
508.201247,-9400.615463,74.020594,0.000000
508.201562,-9252.574275,-222.061783,-306.438199
508.201878,-9252.574275,-370.102971,0.000000
508.202194,-9030.512492,0.000000,-383.047749
508.202509,-9252.574275,0.000000,-229.828649
508.202825,-8956.491898,-592.164754,0.000000
508.203141,-9474.636058,518.144159,-766.095498
508.203456,-9178.553681,0.000000,-153.219100
508.203772,-9326.594869,0.000000,153.219100
508.204088,-9474.636058,148.041188,0.000000
508.204403,-9474.636058,-296.082377,153.219100
508.204719,-8956.491898,148.041188,536.266849
508.205035,-9992.780217,74.020594,0.000000
508.205350,-9104.533087,592.164754,229.828649
508.205666,-10140.821405,296.082377,0.000000
508.205982,-9252.574275,0.000000,229.828649
508.206297,-9918.759623,-222.061783,0.000000
508.206613,-8956.491898,0.000000,76.609550
508.206929,-9844.739029,-444.123565,383.047749
508.207244,-8956.491898,0.000000,0.000000
508.207560,-9696.697840,-1036.288319,612.876398
508.207876,-9030.512492,222.061783,306.438199
508.208191,-9474.636058,-518.144159,229.828649
508.208507,-9104.533087,148.041188,153.219100
508.208823,-9474.636058,296.082377,-76.609550
508.209138,-9622.677246,444.123565,306.438199
508.209454,-9770.718434,74.020594,459.657299
508.209770,-9918.759623,740.205942,0.000000
508.210085,-9844.739029,518.144159,229.828649
508.210401,-10066.800811,222.061783,306.438199
508.210717,-9770.718434,518.144159,153.219100
508.211032,-9696.697840,518.144159,0.000000
508.211348,-9696.697840,518.144159,0.000000
508.211664,-9548.656652,148.041188,0.000000
508.211979,-9918.759623,0.000000,0.000000
508.212295,-9474.636058,0.000000,153.219100
508.212611,-9918.759623,0.000000,0.000000
508.212926,-9622.677246,0.000000,0.000000
508.213242,-9770.718434,0.000000,1302.362347
508.213558,-9548.656652,0.000000,0.000000
508.213873,-9622.677246,0.000000,0.000000
508.214189,-9548.656652,222.061783,-153.219100
508.214505,-9622.677246,0.000000,0.000000
508.214820,-9992.780217,-296.082377,0.000000
508.215136,-9696.697840,74.020594,-153.219100
508.215452,-9474.636058,74.020594,459.657299
508.215767,-9992.780217,0.000000,0.000000
508.216083,-9252.574275,666.185348,76.609550
508.216399,-9326.594869,-370.102971,0.000000
508.216714,-9474.636058,-518.144159,0.000000
508.217030,-9474.636058,-370.102971,0.000000
508.217346,-9326.594869,-444.123565,0.000000
508.217661,-9178.553681,-666.185348,229.828649
508.217977,-9474.636058,-740.205942,0.000000
508.218293,-9178.553681,-518.144159,-153.219100
508.218608,-9770.718434,-888.247130,-229.828649
508.218924,-8956.491898,-666.185348,0.000000
508.219240,-9178.553681,-518.144159,-459.657299
508.219555,-9252.574275,518.144159,76.609550
508.219871,-9918.759623,74.020594,229.828649
508.220187,-9178.553681,-296.082377,229.828649
508.220502,-9104.533087,-740.205942,383.047749
508.220818,-9622.677246,370.102971,459.657299
508.221134,-10066.800811,592.164754,766.095498
508.221449,-9474.636058,370.102971,842.705048
508.221765,-9326.594869,-666.185348,383.047749
508.222080,-8882.471304,-222.061783,766.095498
508.222396,-9252.574275,-222.061783,-229.828649
508.222712,-9474.636058,222.061783,0.000000
508.223027,-9326.594869,-148.041188,153.219100
508.223343,-9104.533087,0.000000,-383.047749
508.223659,-9252.574275,-222.061783,-306.438199
508.223974,-9844.739029,-444.123565,0.000000
508.224290,-9844.739029,0.000000,0.000000
508.224605,-9548.656652,222.061783,0.000000
508.224921,-9326.594869,222.061783,76.609550
508.225237,-9844.739029,518.144159,0.000000
508.225552,-10066.800811,1036.288319,536.266849
508.225868,-9992.780217,592.164754,229.828649
508.226184,-9622.677246,370.102971,306.438199
508.226499,-9622.677246,0.000000,0.000000
508.226815,-9696.697840,-222.061783,0.000000
508.227131,-9400.615463,-444.123565,-306.438199
508.227446,-9326.594869,-592.164754,0.000000
508.227762,-10140.821405,0.000000,0.000000
508.228077,-9770.718434,-444.123565,0.000000
508.228393,-9326.594869,444.123565,76.609550
508.228709,-9622.677246,888.247130,153.219100
508.229024,-9622.677246,1110.308913,153.219100
508.229340,-9696.697840,814.226536,-153.219100
508.229656,-9918.759623,592.164754,-153.219100
508.229971,-9474.636058,296.082377,0.000000
508.230287,-9770.718434,-222.061783,76.609550
508.230602,-9770.718434,-740.205942,689.485948
508.230918,-9252.574275,-370.102971,-229.828649
508.231234,-8956.491898,-370.102971,76.609550
508.231549,-9104.533087,-1332.370696,0.000000
508.231865,-9030.512492,-962.267725,0.000000
508.232181,-8586.388927,-1110.308913,153.219100
508.232496,-9178.553681,-814.226536,153.219100
508.232812,-9252.574275,-962.267725,229.828649
508.233127,-9548.656652,-592.164754,306.438199
508.233443,-9622.677246,-1184.329507,2528.115143
508.233759,-9548.656652,-962.267725,153.219100
508.234074,-9844.739029,-740.205942,76.609550
508.234390,-9474.636058,-962.267725,76.609550
508.234706,-9326.594869,-592.164754,0.000000
508.235021,-9400.615463,0.000000,0.000000
508.235337,-8956.491898,-592.164754,0.000000
508.235653,-9252.574275,-518.144159,76.609550
508.235968,-9474.636058,0.000000,229.828649
508.236284,-9474.636058,148.041188,306.438199
508.236599,-9918.759623,518.144159,306.438199
508.236915,-9696.697840,592.164754,0.000000
508.237231,-9918.759623,370.102971,0.000000
508.237546,-9770.718434,222.061783,0.000000
508.237862,-9918.759623,814.226536,-153.219100
508.238178,-9918.759623,1406.391290,0.000000
508.238493,-9992.780217,1406.391290,76.609550
508.238809,-9696.697840,1036.288319,229.828649
508.239124,-9844.739029,296.082377,153.219100
508.239440,-9104.533087,-370.102971,0.000000
508.239756,-9918.759623,-370.102971,-153.219100
508.240071,-9844.739029,-592.164754,0.000000
508.240387,-9474.636058,-518.144159,229.828649
508.240703,-9326.594869,-962.267725,383.047749
508.241018,-9622.677246,-888.247130,306.438199
508.241334,-9844.739029,-740.205942,76.609550
508.241650,-9770.718434,-296.082377,229.828649
508.241965,-9622.677246,148.041188,0.000000
508.242281,-9770.718434,74.020594,-229.828649
508.242596,-9992.780217,444.123565,0.000000
508.242912,-9622.677246,370.102971,0.000000
508.243228,-9844.739029,888.247130,306.438199
508.243543,-9400.615463,814.226536,229.828649
508.243859,-9178.553681,444.123565,76.609550
508.244175,-9400.615463,370.102971,0.000000
508.244490,-9622.677246,296.082377,0.000000
508.244806,-8956.491898,0.000000,-306.438199
508.245121,-8290.306550,296.082377,-1378.971896
508.245437,-8512.368333,0.000000,-612.876398
508.245753,-9252.574275,0.000000,-306.438199
508.246068,-9178.553681,0.000000,229.828649
508.246384,-9770.718434,-518.144159,153.219100
508.246700,-9622.677246,148.041188,919.314598
508.247015,-9844.739029,592.164754,0.000000
508.247331,-9548.656652,592.164754,306.438199
508.247646,-9548.656652,962.267725,229.828649
508.247962,-9844.739029,740.205942,689.485948
508.248278,-10214.842000,1332.370696,536.266849
508.248593,-9844.739029,518.144159,0.000000
508.248909,-9548.656652,0.000000,76.609550
508.249225,-9622.677246,0.000000,153.219100
508.249540,-9400.615463,1036.288319,-383.047749
508.249856,-9104.533087,148.041188,-383.047749
508.250172,-9030.512492,222.061783,-536.266849
508.250487,-9474.636058,74.020594,0.000000
508.250803,-9252.574275,0.000000,229.828649
508.251118,-9548.656652,0.000000,306.438199
508.251434,-10066.800811,148.041188,229.828649
508.251750,-9696.697840,148.041188,229.828649
508.252065,-9474.636058,518.144159,-383.047749
508.252381,-9252.574275,296.082377,-919.314598
508.252697,-9474.636058,222.061783,229.828649
508.253012,-9770.718434,444.123565,0.000000
508.253328,-9548.656652,0.000000,383.047749
508.253643,-9844.739029,0.000000,76.609550
508.253959,-9104.533087,74.020594,-459.657299
508.254275,-9326.594869,74.020594,-153.219100
508.254590,-9030.512492,148.041188,-459.657299
508.254906,-9178.553681,222.061783,-612.876398
508.255222,-9548.656652,-222.061783,919.314598
508.255537,-9548.656652,0.000000,306.438199
508.255853,-9400.615463,74.020594,689.485948
508.256169,-9696.697840,222.061783,306.438199
508.256484,-9178.553681,0.000000,383.047749
508.256800,-9104.533087,0.000000,0.000000
508.257115,-8734.430116,370.102971,-153.219100
508.257431,-9474.636058,296.082377,0.000000
508.257747,-9400.615463,0.000000,229.828649
508.258062,-10140.821405,-962.267725,2604.724693
508.258378,-9548.656652,-518.144159,229.828649
508.258694,-9918.759623,-222.061783,229.828649
508.259009,-9252.574275,-296.082377,153.219100
508.259325,-9548.656652,0.000000,229.828649
508.259640,-8660.409521,-814.226536,-1225.752797
508.259956,-9844.739029,-148.041188,0.000000
508.260272,-9474.636058,-666.185348,229.828649
508.260587,-9548.656652,0.000000,306.438199
508.260903,-9992.780217,-222.061783,1991.848295
508.261219,-9252.574275,0.000000,153.219100
508.261534,-9918.759623,-222.061783,0.000000
508.261850,-9400.615463,222.061783,0.000000
508.262165,-9844.739029,0.000000,0.000000
508.262481,-9178.553681,148.041188,0.000000
508.262797,-9918.759623,222.061783,0.000000
508.263112,-9770.718434,296.082377,306.438199
508.263428,-9400.615463,444.123565,383.047749
508.263744,-10214.842000,148.041188,153.219100
508.264059,-9030.512492,296.082377,0.000000
508.264375,-9770.718434,0.000000,0.000000
508.264691,-9400.615463,0.000000,-153.219100
508.265006,-9400.615463,148.041188,-459.657299
508.265322,-9474.636058,-222.061783,-1302.362347
508.265637,-9696.697840,296.082377,383.047749
508.265953,-9474.636058,444.123565,76.609550
508.266269,-9474.636058,296.082377,76.609550
508.266584,-9696.697840,888.247130,229.828649
508.266900,-9474.636058,222.061783,459.657299
508.267216,-9696.697840,296.082377,153.219100
508.267531,-9400.615463,592.164754,229.828649
508.267847,-9696.697840,370.102971,0.000000
508.268162,-9252.574275,296.082377,-766.095498
508.268478,-9474.636058,444.123565,0.000000
508.268794,-9104.533087,370.102971,-689.485948
508.269109,-9474.636058,0.000000,-153.219100
508.269425,-9178.553681,0.000000,-306.438199
508.269741,-9104.533087,148.041188,-76.609550
508.270056,-9400.615463,296.082377,0.000000
508.270372,-9622.677246,0.000000,153.219100
508.270688,-9548.656652,370.102971,76.609550
508.271003,-9548.656652,296.082377,383.047749
508.271319,-9474.636058,444.123565,536.266849
508.271634,-9844.739029,518.144159,766.095498
508.271950,-9770.718434,296.082377,383.047749
508.272266,-9548.656652,0.000000,459.657299
508.272581,-9992.780217,1258.350101,-153.219100
508.272897,-9474.636058,0.000000,0.000000
508.273213,-9474.636058,-296.082377,-229.828649
508.273528,-9252.574275,-740.205942,153.219100
508.273844,-9178.553681,-1036.288319,0.000000
508.274159,-9030.512492,-962.267725,-612.876398
508.274475,-9474.636058,-814.226536,0.000000
508.274791,-9326.594869,-592.164754,0.000000
508.275106,-9400.615463,-222.061783,153.219100
508.275422,-9326.594869,-296.082377,306.438199
508.275738,-9696.697840,0.000000,612.876398
508.276053,-9770.718434,0.000000,995.924147
508.276369,-9696.697840,-666.185348,536.266849
508.276685,-9326.594869,-296.082377,229.828649
508.277000,-9104.533087,444.123565,2987.772442
508.277316,-9400.615463,814.226536,229.828649
508.277631,-9474.636058,444.123565,612.876398
508.277947,-9622.677246,444.123565,766.095498
508.278263,-9474.636058,0.000000,459.657299
508.278578,-9696.697840,-666.185348,459.657299
508.278894,-9252.574275,-370.102971,-689.485948
508.279210,-9178.553681,0.000000,-383.047749
508.279525,-9178.553681,-296.082377,-919.314598
508.279841,-8660.409521,-1480.411884,-2451.505594
508.280156,-9474.636058,0.000000,-612.876398
508.280472,-9548.656652,222.061783,229.828649
508.280788,-10436.903782,0.000000,459.657299
508.281103,-9548.656652,-296.082377,229.828649
508.281419,-10140.821405,0.000000,0.000000
508.281735,-9474.636058,-518.144159,383.047749
508.282050,-9548.656652,-1332.370696,0.000000
508.282366,-9326.594869,-1036.288319,-536.266849
508.282681,-9622.677246,-740.205942,0.000000
508.282997,-9622.677246,-1554.432478,0.000000
508.283313,-9696.697840,-1184.329507,153.219100
508.283628,-9770.718434,-1184.329507,536.266849
508.283944,-9474.636058,-1850.514855,153.219100
508.284260,-9400.615463,-2220.617826,76.609550
508.284575,-9104.533087,-1702.473667,-919.314598
508.284891,-9104.533087,-962.267725,-842.705048
508.285207,-9104.533087,-1850.514855,-612.876398
508.285522,-9326.594869,-2220.617826,-459.657299
508.285838,-9030.512492,-2146.597232,76.609550
508.286153,-9474.636058,-1406.391290,76.609550
508.286469,-9474.636058,-814.226536,306.438199
508.286785,-9400.615463,-370.102971,459.657299
508.287100,-7772.162391,370.102971,842.705048
508.287416,-9696.697840,-962.267725,306.438199
508.287732,-9474.636058,-666.185348,0.000000
508.288047,-9474.636058,-370.102971,229.828649
508.288363,-9400.615463,-296.082377,229.828649
508.288678,-9474.636058,-518.144159,536.266849
508.288994,-9622.677246,-370.102971,0.000000
508.289310,-9622.677246,-888.247130,76.609550
508.289625,-9400.615463,-888.247130,0.000000
508.289941,-9548.656652,-1036.288319,0.000000
508.290257,-9400.615463,-1332.370696,-229.828649
508.290572,-9400.615463,-1110.308913,0.000000
508.290888,-9326.594869,-962.267725,0.000000
508.291204,-9030.512492,-666.185348,-153.219100
508.291519,-9844.739029,-740.205942,-1225.752797
508.291835,-9918.759623,-592.164754,153.219100
508.292150,-9844.739029,0.000000,689.485948
508.292466,-10066.800811,-444.123565,0.000000
508.292782,-10362.883188,-888.247130,-842.705048
508.293097,-9770.718434,592.164754,1072.533697
508.293413,-9770.718434,296.082377,1072.533697
508.293729,-9770.718434,74.020594,306.438199
508.294044,-9770.718434,0.000000,153.219100
508.294360,-8512.368333,-518.144159,-459.657299
508.294675,-9770.718434,-814.226536,-612.876398
508.294991,-9770.718434,-1036.288319,-306.438199
508.295307,-9696.697840,-1036.288319,-383.047749
508.295622,-9326.594869,-592.164754,-995.924147
508.295938,-8956.491898,-592.164754,-689.485948
508.296254,-9104.533087,444.123565,-153.219100
508.296569,-9326.594869,0.000000,306.438199
508.296885,-9548.656652,-296.082377,0.000000
508.297200,-9178.553681,-222.061783,-1685.410096
508.297516,-9474.636058,-518.144159,153.219100
508.297832,-9178.553681,-1110.308913,229.828649
508.298147,-8956.491898,-666.185348,0.000000
508.298463,-8660.409521,-740.205942,-459.657299
508.298779,-8216.285956,-962.267725,0.000000
508.299094,-8660.409521,-962.267725,0.000000
508.299410,-9474.636058,-1184.329507,153.219100
508.299726,-8438.347739,-1332.370696,76.609550
508.300041,-9696.697840,-1406.391290,306.438199
508.300357,-9178.553681,-1850.514855,459.657299
508.300672,-9252.574275,-740.205942,76.609550
508.300988,-9104.533087,-1332.370696,459.657299
508.301304,-9474.636058,-1332.370696,536.266849
508.301619,-9770.718434,-2220.617826,0.000000
508.301935,-8808.450710,-888.247130,-229.828649
508.302251,-9696.697840,-1332.370696,0.000000
508.302566,-9030.512492,-1332.370696,153.219100
508.302882,-9622.677246,-1628.453072,229.828649
508.303197,-8956.491898,-740.205942,-306.438199
508.303513,-9548.656652,-1776.494261,229.828649
508.303829,-9474.636058,-1036.288319,229.828649
508.304144,-9696.697840,-1110.308913,76.609550
508.304460,-9696.697840,-1036.288319,1455.581446
508.304776,-9622.677246,-1184.329507,383.047749
508.305091,-9696.697840,-1036.288319,536.266849
508.305407,-9474.636058,-1110.308913,0.000000
508.305723,-9622.677246,-962.267725,-153.219100
508.306038,-9104.533087,-518.144159,153.219100
508.306354,-9844.739029,-740.205942,-153.219100
508.306669,-9918.759623,-666.185348,0.000000
508.306985,-9992.780217,-666.185348,0.000000
508.307301,-9622.677246,-296.082377,536.266849
508.307616,-10288.862594,-814.226536,153.219100
508.307932,-9474.636058,-370.102971,76.609550
508.308248,-9844.739029,-296.082377,-153.219100
508.308563,-9548.656652,-592.164754,-383.047749
508.308879,-8808.450710,-592.164754,1302.362347
508.309194,-9548.656652,-370.102971,-229.828649
508.309510,-9622.677246,-222.061783,-153.219100
508.309826,-9622.677246,-148.041188,0.000000
508.310141,-9696.697840,-148.041188,-153.219100
508.310457,-9696.697840,-296.082377,229.828649
508.310773,-9770.718434,0.000000,306.438199
508.311088,-9770.718434,-444.123565,-229.828649
508.311404,-9548.656652,-592.164754,306.438199
508.311719,-10066.800811,-592.164754,459.657299
508.312035,-9992.780217,-444.123565,153.219100
508.312351,-9548.656652,-814.226536,76.609550
508.312666,-9474.636058,-1184.329507,76.609550
508.312982,-9474.636058,-1036.288319,-306.438199
508.313298,-10436.903782,518.144159,-229.828649
508.313613,-9252.574275,-518.144159,-536.266849
508.313929,-9178.553681,-444.123565,-306.438199
508.314245,-9326.594869,-296.082377,76.609550
508.314560,-9178.553681,370.102971,-536.266849
508.314876,-9474.636058,-518.144159,76.609550
508.315191,-9474.636058,-962.267725,536.266849
508.315507,-9030.512492,-666.185348,383.047749
508.315823,-9104.533087,-814.226536,153.219100
508.316138,-8808.450710,-370.102971,0.000000
508.316454,-9030.512492,-592.164754,0.000000
508.316770,-8808.450710,-888.247130,153.219100
508.317085,-8882.471304,-1406.391290,-229.828649
508.317401,-9104.533087,-592.164754,-459.657299
508.317716,-9474.636058,-222.061783,153.219100
508.318032,-9474.636058,-814.226536,76.609550
508.318348,-8808.450710,-962.267725,0.000000
508.318663,-8808.450710,-666.185348,-229.828649
508.318979,-10066.800811,148.041188,-229.828649
508.319295,-9474.636058,-1184.329507,306.438199
508.319610,-9030.512492,-1184.329507,0.000000
508.319926,-8586.388927,-370.102971,-229.828649
508.320242,-8956.491898,-148.041188,0.000000
508.320557,-9622.677246,-962.267725,0.000000
508.320873,-9400.615463,-518.144159,0.000000
508.321189,-9252.574275,-814.226536,76.609550
508.321504,-9474.636058,-1332.370696,-229.828649
508.321820,-9474.636058,-1406.391290,-919.314598
508.322136,-9400.615463,-1554.432478,383.047749
508.322451,-9178.553681,-1332.370696,459.657299
508.322767,-9474.636058,-1184.329507,229.828649
508.323083,-9770.718434,-518.144159,229.828649
508.323398,-10214.842000,666.185348,919.314598
508.323714,-9622.677246,1110.308913,153.219100
508.324029,-9844.739029,444.123565,0.000000
508.324345,-10658.965565,148.041188,76.609550
508.324661,-10510.924376,74.020594,76.609550
508.324976,-10436.903782,-592.164754,76.609550
508.325292,-9474.636058,-1258.350101,-229.828649
508.325608,-9770.718434,-1480.411884,-306.438199
508.325923,-9474.636058,-1406.391290,0.000000
508.326239,-9326.594869,-888.247130,383.047749
508.326555,-9326.594869,-962.267725,0.000000
508.326870,-9252.574275,-888.247130,-229.828649
508.327186,-9844.739029,-296.082377,-153.219100
508.327502,-10362.883188,0.000000,306.438199
508.327817,-9992.780217,222.061783,995.924147
508.328133,-10214.842000,74.020594,229.828649
508.328449,-10214.842000,222.061783,76.609550
508.328764,-10140.821405,296.082377,0.000000
508.329080,-9844.739029,-296.082377,0.000000
508.329396,-9474.636058,-222.061783,-229.828649
508.329711,-9548.656652,-148.041188,0.000000
508.330027,-9326.594869,-666.185348,0.000000
508.330343,-9326.594869,-740.205942,0.000000
508.330658,-9104.533087,-1036.288319,229.828649
508.330974,-8956.491898,-592.164754,383.047749
508.331290,-9474.636058,0.000000,0.000000
508.331605,-9474.636058,370.102971,306.438199
508.331921,-9622.677246,74.020594,612.876398
508.332237,-9474.636058,-370.102971,0.000000
508.332552,-9696.697840,-1184.329507,-459.657299
508.332868,-9474.636058,-1702.473667,229.828649
508.333184,-9326.594869,-1998.556043,76.609550
508.333499,-8216.285956,-1406.391290,842.705048
508.333815,-8660.409521,-1702.473667,383.047749
508.334131,-8438.347739,-1332.370696,153.219100
508.334446,-8586.388927,-962.267725,153.219100
508.334762,-8660.409521,-740.205942,76.609550
508.335078,-9622.677246,-296.082377,0.000000
508.335393,-9622.677246,0.000000,229.828649
508.335709,-9474.636058,74.020594,229.828649
508.336025,-9474.636058,0.000000,0.000000
508.336340,-9178.553681,-222.061783,306.438199
508.336656,-9400.615463,-888.247130,0.000000
508.336972,-9252.574275,-1184.329507,-306.438199
508.337287,-8808.450710,-1184.329507,-459.657299
508.337603,-8808.450710,-1480.411884,0.000000
508.337918,-8586.388927,-1924.535449,612.876398
508.338234,-9252.574275,-1924.535449,229.828649
508.338550,-9178.553681,-1406.391290,229.828649
508.338865,-9474.636058,-1110.308913,306.438199
508.339181,-9622.677246,-1406.391290,766.095498
508.339497,-9770.718434,-740.205942,0.000000
508.339812,-9992.780217,0.000000,0.000000
508.340128,-10214.842000,-296.082377,229.828649
508.340444,-9992.780217,-370.102971,459.657299
508.340759,-9844.739029,-814.226536,1072.533697
508.341075,-9252.574275,-666.185348,-306.438199
508.341391,-9474.636058,-370.102971,0.000000
508.341706,-9400.615463,-1184.329507,0.000000
508.342022,-9474.636058,-1406.391290,153.219100
508.342338,-8808.450710,-740.205942,-229.828649
508.342653,-9622.677246,-888.247130,0.000000
508.342969,-9696.697840,-1184.329507,-229.828649
508.343285,-9992.780217,-666.185348,76.609550
508.343600,-9844.739029,-518.144159,1455.581446
508.343916,-9992.780217,-1110.308913,-229.828649
508.344232,-9844.739029,-1184.329507,0.000000
508.344547,-10140.821405,-1406.391290,76.609550
508.344863,-9696.697840,-1184.329507,0.000000
508.345179,-9400.615463,-1480.411884,0.000000
508.345494,-9844.739029,-518.144159,0.000000
508.345810,-9918.759623,-222.061783,229.828649
508.346126,-9696.697840,0.000000,153.219100
508.346441,-9918.759623,-666.185348,-689.485948
508.346757,-9844.739029,-666.185348,-306.438199
508.347073,-9770.718434,-1036.288319,229.828649
508.347388,-9696.697840,-814.226536,-306.438199
508.347704,-9104.533087,-1480.411884,0.000000
508.348020,-9104.533087,-1776.494261,-1225.752797
508.348335,-9326.594869,-1554.432478,-459.657299
508.348651,-9474.636058,-1480.411884,0.000000
508.348967,-9178.553681,-1480.411884,-383.047749
508.349282,-9400.615463,-1110.308913,-306.438199
508.349598,-9844.739029,-222.061783,0.000000
508.349914,-9548.656652,-296.082377,0.000000
508.350229,-9474.636058,-148.041188,0.000000
508.350545,-10066.800811,0.000000,306.438199
508.350860,-8142.265362,222.061783,306.438199
508.351176,-9992.780217,0.000000,459.657299
508.351492,-9400.615463,-518.144159,536.266849
508.351807,-9474.636058,-740.205942,459.657299
508.352123,-9030.512492,-1036.288319,383.047749
508.352439,-9178.553681,-1554.432478,-842.705048
508.352754,-8660.409521,-814.226536,-229.828649
508.353070,-9030.512492,-1110.308913,-306.438199
508.353386,-8512.368333,-888.247130,-306.438199
508.353701,-8734.430116,-1184.329507,2987.772442
508.354017,-8882.471304,-814.226536,0.000000
508.354333,-9178.553681,-518.144159,0.000000
508.354648,-8882.471304,-370.102971,0.000000
508.354964,-9548.656652,0.000000,459.657299
508.355280,-8956.491898,-222.061783,1149.143247
508.355595,-9696.697840,-740.205942,383.047749
508.355911,-9326.594869,-518.144159,153.219100
508.356227,-9696.697840,-370.102971,0.000000
508.356542,-9178.553681,-740.205942,76.609550
508.356858,-9178.553681,-148.041188,0.000000
508.357174,-9252.574275,-592.164754,306.438199
508.357489,-9030.512492,-444.123565,0.000000
508.357805,-9622.677246,-1110.308913,153.219100
508.358121,-9104.533087,-888.247130,306.438199
508.358436,-9252.574275,-888.247130,383.047749
508.358752,-9696.697840,-1184.329507,76.609550
508.359068,-9400.615463,-962.267725,76.609550
508.359383,-9548.656652,-666.185348,0.000000
508.359699,-9326.594869,-962.267725,76.609550
508.360015,-9918.759623,-1110.308913,153.219100
508.360330,-9770.718434,-1480.411884,229.828649
508.360646,-9400.615463,-1110.308913,-153.219100
508.360962,-9474.636058,-1184.329507,0.000000
508.361277,-9474.636058,-814.226536,76.609550
508.361593,-9548.656652,-888.247130,0.000000
508.361909,-9474.636058,-1258.350101,0.000000
508.362224,-9178.553681,-1332.370696,76.609550
508.362540,-9918.759623,-1110.308913,612.876398
508.362856,-9696.697840,-1332.370696,76.609550
508.363171,-9622.677246,-740.205942,-153.219100
508.363487,-9326.594869,-888.247130,0.000000
508.363802,-9622.677246,-1258.350101,842.705048
508.364118,-10066.800811,-1036.288319,0.000000
508.364434,-9474.636058,-888.247130,0.000000
508.364749,-9400.615463,-888.247130,-229.828649
508.365065,-9992.780217,-1036.288319,0.000000
508.365381,-9622.677246,-814.226536,-612.876398
508.365696,-9696.697840,-592.164754,229.828649
508.366012,-9622.677246,-1110.308913,0.000000
508.366328,-9770.718434,-740.205942,153.219100
508.366643,-9844.739029,-666.185348,306.438199
508.366959,-9844.739029,-666.185348,76.609550
508.367275,-9770.718434,-518.144159,229.828649
508.367590,-9622.677246,-592.164754,0.000000
508.367906,-9548.656652,-592.164754,-229.828649
508.368222,-10288.862594,0.000000,612.876398
508.368537,-9326.594869,-962.267725,-306.438199
508.368853,-9844.739029,-592.164754,-383.047749
508.369169,-9548.656652,-666.185348,-306.438199
508.369484,-9622.677246,-370.102971,-229.828649
508.369800,-9474.636058,444.123565,-612.876398
508.370116,-9548.656652,0.000000,306.438199
508.370431,-9770.718434,74.020594,383.047749
508.370747,-9770.718434,148.041188,306.438199
508.371063,-9918.759623,0.000000,1149.143247
508.371378,-9474.636058,-148.041188,76.609550
508.371694,-9400.615463,-370.102971,153.219100
508.372010,-9326.594869,-444.123565,229.828649
508.372325,-9474.636058,-518.144159,0.000000
508.372641,-9400.615463,-962.267725,0.000000
508.372957,-9104.533087,-1036.288319,0.000000
508.373272,-8808.450710,-666.185348,-306.438199
508.373588,-9178.553681,-740.205942,-153.219100
508.373904,-8808.450710,-1110.308913,0.000000
508.374219,-8956.491898,-1110.308913,0.000000
508.374535,-9030.512492,-1480.411884,0.000000
508.374851,-9178.553681,-1184.329507,-536.266849
508.375166,-9326.594869,-962.267725,-536.266849
508.375482,-8660.409521,-592.164754,-383.047749
508.375798,-9030.512492,0.000000,-689.485948
508.376113,-9252.574275,296.082377,-536.266849
508.376429,-9474.636058,740.205942,0.000000
508.376745,-9548.656652,1036.288319,536.266849
508.377060,-9696.697840,962.267725,842.705048
508.377376,-9696.697840,592.164754,689.485948
508.377691,-9622.677246,518.144159,536.266849
508.378007,-9178.553681,296.082377,-306.438199
508.378323,-9326.594869,814.226536,-153.219100
508.378638,-9104.533087,0.000000,-229.828649
508.378954,-9474.636058,-518.144159,-383.047749
508.379270,-9474.636058,74.020594,0.000000
508.379585,-9622.677246,-222.061783,153.219100
508.379901,-10066.800811,0.000000,383.047749
508.380217,-9548.656652,0.000000,-229.828649
508.380532,-9770.718434,296.082377,0.000000
508.380848,-9696.697840,444.123565,76.609550
508.381164,-9918.759623,0.000000,-229.828649
508.381479,-10288.862594,814.226536,229.828649
508.381795,-10288.862594,1184.329507,689.485948
508.382111,-10658.965565,1110.308913,1225.752797
508.382426,-10732.986159,888.247130,1455.581446
508.382742,-10066.800811,370.102971,842.705048
508.383058,-9548.656652,1406.391290,153.219100
508.383373,-9622.677246,592.164754,229.828649
508.383689,-9622.677246,0.000000,0.000000
508.384005,-9474.636058,0.000000,-306.438199
508.384320,-9918.759623,-148.041188,0.000000
508.384636,-9178.553681,-592.164754,-306.438199
508.384952,-9104.533087,0.000000,-842.705048
508.385267,-9252.574275,1332.370696,-383.047749
508.385583,-9548.656652,148.041188,-459.657299
508.385899,-9622.677246,666.185348,76.609550
508.386214,-9918.759623,518.144159,76.609550
508.386530,-10066.800811,518.144159,689.485948
508.386846,-9696.697840,148.041188,229.828649
508.387161,-9474.636058,148.041188,76.609550
508.387477,-9104.533087,518.144159,459.657299
508.387793,-9178.553681,370.102971,306.438199
508.388108,-9104.533087,0.000000,153.219100
508.388424,-9178.553681,0.000000,76.609550
508.388740,-9326.594869,-814.226536,0.000000
508.389055,-9104.533087,-740.205942,-459.657299
508.389371,-8882.471304,-444.123565,-689.485948
508.389687,-8956.491898,-148.041188,-612.876398
508.390002,-8586.388927,-296.082377,-766.095498
508.390318,-9400.615463,0.000000,76.609550
508.390633,-10066.800811,-296.082377,459.657299
508.390949,-9622.677246,-296.082377,76.609550
508.391265,-9844.739029,74.020594,612.876398
508.391580,-9474.636058,0.000000,612.876398
508.391896,-9400.615463,74.020594,0.000000
508.392212,-9400.615463,296.082377,-229.828649
508.392527,-9474.636058,-148.041188,0.000000
508.392843,-9622.677246,-444.123565,306.438199
508.393159,-9696.697840,-222.061783,-153.219100
508.393474,-9326.594869,-370.102971,-306.438199
508.393790,-9326.594869,74.020594,-229.828649
508.394106,-9548.656652,148.041188,-153.219100
508.394421,-9474.636058,666.185348,0.000000
508.394737,-9696.697840,74.020594,0.000000
508.395053,-9474.636058,296.082377,76.609550
508.395368,-10288.862594,148.041188,76.609550
508.395684,-9474.636058,740.205942,-842.705048
508.396000,-10140.821405,740.205942,0.000000
508.396315,-9252.574275,444.123565,0.000000
508.396631,-10066.800811,296.082377,-153.219100
508.396947,-9474.636058,518.144159,-306.438199
508.397262,-9918.759623,0.000000,-459.657299
508.397578,-9474.636058,148.041188,76.609550
508.397894,-10066.800811,0.000000,383.047749
508.398209,-9548.656652,518.144159,383.047749
508.398525,-9770.718434,0.000000,1455.581446
508.398841,-9548.656652,666.185348,459.657299
508.399156,-9548.656652,74.020594,459.657299
508.399472,-9696.697840,370.102971,229.828649
508.399788,-9548.656652,222.061783,306.438199
508.400103,-9622.677246,222.061783,306.438199
508.400419,-9474.636058,148.041188,0.000000
508.400735,-9992.780217,444.123565,383.047749
508.401050,-9622.677246,296.082377,229.828649
508.401366,-9696.697840,74.020594,153.219100
508.401682,-9474.636058,222.061783,229.828649
508.401997,-9696.697840,0.000000,0.000000
508.402313,-9474.636058,222.061783,-229.828649
508.402629,-9400.615463,-222.061783,0.000000
508.402944,-9400.615463,-222.061783,459.657299
508.403260,-9326.594869,-370.102971,153.219100
508.403576,-9770.718434,-148.041188,0.000000
508.403891,-9178.553681,-222.061783,0.000000
508.404207,-9474.636058,-222.061783,229.828649
508.404522,-9252.574275,-148.041188,153.219100
508.404838,-9474.636058,-222.061783,0.000000
508.405154,-9178.553681,0.000000,306.438199
508.405469,-9696.697840,-296.082377,153.219100
508.405785,-8512.368333,0.000000,612.876398
508.406101,-9104.533087,-370.102971,0.000000
508.406416,-9252.574275,-296.082377,306.438199
508.406732,-9104.533087,-222.061783,-153.219100
508.407048,-8882.471304,-296.082377,0.000000
508.407363,-9622.677246,0.000000,0.000000
508.407679,-9178.553681,-222.061783,0.000000
508.407995,-9030.512492,0.000000,0.000000
508.408310,-9770.718434,-518.144159,76.609550
508.408626,-9030.512492,-1110.308913,229.828649
508.408942,-9474.636058,-592.164754,229.828649
508.409257,-9326.594869,-296.082377,0.000000
508.409573,-9770.718434,-296.082377,0.000000
508.409889,-9400.615463,0.000000,306.438199
508.410204,-9474.636058,-962.267725,459.657299
508.410520,-9474.636058,-222.061783,0.000000
508.410836,-9844.739029,0.000000,0.000000
508.411151,-9844.739029,148.041188,383.047749
508.411467,-9622.677246,-296.082377,459.657299
508.411783,-9548.656652,-148.041188,-306.438199
508.412098,-9474.636058,148.041188,-229.828649
508.412414,-10214.842000,370.102971,76.609550
508.412730,-9992.780217,222.061783,766.095498
508.413045,-9844.739029,1480.411884,229.828649
508.413361,-9548.656652,1036.288319,153.219100
508.413677,-9770.718434,592.164754,0.000000
508.413992,-9622.677246,222.061783,153.219100
508.414308,-9622.677246,0.000000,306.438199
508.414624,-9400.615463,148.041188,306.438199
508.414939,-9474.636058,-370.102971,-306.438199
508.415255,-9844.739029,-444.123565,0.000000
508.415571,-9622.677246,-222.061783,153.219100
508.415886,-9474.636058,222.061783,153.219100
508.416202,-9252.574275,814.226536,-306.438199
508.416518,-9918.759623,1258.350101,459.657299
508.416833,-10140.821405,1332.370696,383.047749
508.417149,-10066.800811,1036.288319,153.219100
508.417464,-9770.718434,740.205942,459.657299
508.417780,-9992.780217,74.020594,0.000000
508.418096,-9770.718434,-592.164754,0.000000
508.418411,-9252.574275,-1332.370696,-306.438199
508.418727,-9030.512492,-1480.411884,-459.657299
508.419043,-8882.471304,-1480.411884,0.000000
508.419358,-9178.553681,-1480.411884,229.828649
508.419674,-9030.512492,-1110.308913,306.438199
508.419990,-9030.512492,-740.205942,229.828649
508.420305,-9474.636058,74.020594,0.000000
508.420621,-9992.780217,444.123565,536.266849
508.420937,-10066.800811,814.226536,612.876398
508.421252,-9622.677246,1184.329507,459.657299
508.421568,-9844.739029,888.247130,229.828649
508.421884,-9252.574275,666.185348,459.657299
508.422199,-9400.615463,592.164754,76.609550
508.422515,-8882.471304,-296.082377,-383.047749
508.422831,-8438.347739,-962.267725,-689.485948
508.423146,-8586.388927,-1184.329507,0.000000
508.423462,-8586.388927,-1480.411884,-689.485948
508.423778,-8438.347739,-1924.535449,-153.219100
508.424093,-8808.450710,-2294.638420,-383.047749
508.424409,-8734.430116,-1554.432478,-306.438199
508.424725,-9548.656652,-888.247130,842.705048
508.425040,-9252.574275,0.000000,76.609550
508.425356,-9622.677246,962.267725,536.266849
508.425672,-10436.903782,1998.556043,919.314598
508.425987,-10881.027347,962.267725,536.266849
508.426303,-11177.109724,518.144159,536.266849
508.426619,-9770.718434,1036.288319,689.485948
508.426934,-9844.739029,0.000000,306.438199
508.427250,-9030.512492,-888.247130,76.609550
508.427566,-9326.594869,-1776.494261,0.000000
508.427881,-8364.327145,-1332.370696,-919.314598
508.428197,-8068.244768,-1406.391290,-1378.971896
508.428513,-8734.430116,-296.082377,-536.266849
508.428828,-9474.636058,-1258.350101,-153.219100
508.429144,-9770.718434,-814.226536,-1225.752797
508.429460,-9770.718434,222.061783,-306.438199
508.429775,-10658.965565,1110.308913,459.657299
508.430091,-10510.924376,1776.494261,766.095498
508.430407,-11325.150913,1850.514855,1455.581446
508.430722,-10584.944971,1110.308913,612.876398
508.431038,-10362.883188,1924.535449,76.609550
508.431354,-10732.986159,1628.453072,766.095498
508.431669,-9844.739029,370.102971,536.266849
508.431985,-8438.347739,148.041188,383.047749
508.432301,-9622.677246,-518.144159,-766.095498
508.432616,-9178.553681,-1110.308913,-842.705048
508.432932,-8438.347739,-1480.411884,-842.705048
508.433248,-8290.306550,222.061783,-995.924147
508.433563,-8808.450710,0.000000,-612.876398
508.433879,-9992.780217,0.000000,-459.657299
508.434195,-10066.800811,666.185348,0.000000
508.434510,-10510.924376,1184.329507,842.705048
508.434826,-9622.677246,1776.494261,306.438199
508.435142,-11325.150913,3034.844362,766.095498
508.435457,-11029.068536,1480.411884,1149.143247
508.435773,-9696.697840,1480.411884,536.266849
508.436089,-9622.677246,1036.288319,459.657299
508.436404,-9400.615463,222.061783,383.047749
508.436720,-8882.471304,-148.041188,153.219100
508.437036,-9252.574275,-666.185348,-229.828649
508.437351,-8660.409521,-1406.391290,-459.657299
508.437667,-8808.450710,-888.247130,-842.705048
508.437983,-8808.450710,-666.185348,612.876398
508.438298,-9326.594869,-370.102971,459.657299
508.438614,-9104.533087,-592.164754,76.609550
508.438930,-9548.656652,-148.041188,76.609550
508.439245,-9696.697840,518.144159,306.438199
508.439561,-9992.780217,518.144159,229.828649
508.439877,-9104.533087,1184.329507,153.219100
508.440192,-9252.574275,814.226536,0.000000
508.440508,-9400.615463,444.123565,0.000000
508.440824,-9548.656652,444.123565,-536.266849
508.441139,-8882.471304,0.000000,0.000000
508.441455,-9030.512492,-518.144159,0.000000
508.441771,-9104.533087,-814.226536,-306.438199
508.442086,-8956.491898,-666.185348,0.000000
508.442402,-9622.677246,0.000000,0.000000
508.442718,-9252.574275,-518.144159,153.219100
508.443033,-8660.409521,-518.144159,-153.219100
508.443349,-9474.636058,-370.102971,0.000000
508.443665,-9622.677246,518.144159,0.000000
508.443980,-8956.491898,518.144159,153.219100
508.444296,-9844.739029,666.185348,153.219100
508.444612,-9400.615463,222.061783,-229.828649
508.444927,-9622.677246,444.123565,-306.438199
508.445243,-9104.533087,-518.144159,-306.438199
508.445559,-9770.718434,0.000000,0.000000
508.445874,-9548.656652,0.000000,0.000000
508.446190,-10140.821405,0.000000,-153.219100
508.446506,-9400.615463,148.041188,0.000000
508.446821,-9696.697840,-222.061783,0.000000
508.447137,-9474.636058,-296.082377,0.000000
508.447453,-9622.677246,0.000000,0.000000
508.447768,-9918.759623,-370.102971,76.609550
508.448084,-9622.677246,74.020594,-306.438199
508.448400,-9918.759623,0.000000,306.438199
508.448715,-9770.718434,222.061783,229.828649
508.449031,-10436.903782,148.041188,153.219100
508.449346,-9548.656652,296.082377,229.828649
508.449662,-10584.944971,444.123565,306.438199
508.449978,-9844.739029,1036.288319,76.609550
508.450293,-10066.800811,814.226536,229.828649
508.450609,-9844.739029,444.123565,76.609550
508.450925,-9770.718434,592.164754,306.438199
508.451240,-10362.883188,296.082377,153.219100
508.451556,-9474.636058,0.000000,76.609550
508.451872,-9696.697840,74.020594,-153.219100
508.452187,-9252.574275,0.000000,0.000000
508.452503,-8808.450710,74.020594,0.000000
508.452819,-9474.636058,74.020594,-306.438199
508.453134,-9474.636058,148.041188,-383.047749
508.453450,-9474.636058,444.123565,-306.438199
508.453766,-9326.594869,370.102971,-306.438199
508.454081,-9474.636058,1110.308913,-1072.533697
508.454397,-9474.636058,666.185348,-306.438199
508.454713,-9400.615463,1258.350101,0.000000
508.455028,-9474.636058,1184.329507,0.000000
508.455344,-9918.759623,518.144159,1991.848295
508.455660,-9178.553681,444.123565,76.609550
508.455975,-9252.574275,444.123565,383.047749
508.456291,-9474.636058,222.061783,383.047749
508.456607,-9548.656652,-370.102971,229.828649
508.456922,-8882.471304,-518.144159,76.609550
508.457238,-9030.512492,-444.123565,0.000000
508.457554,-9326.594869,-888.247130,-612.876398
508.457869,-9030.512492,-444.123565,0.000000
508.458185,-8956.491898,-296.082377,-306.438199
508.458501,-8956.491898,0.000000,0.000000
508.458816,-9400.615463,-222.061783,0.000000
508.459132,-9252.574275,0.000000,-383.047749
508.459448,-8956.491898,-222.061783,0.000000
508.459763,-8438.347739,518.144159,0.000000
508.460079,-9178.553681,-370.102971,153.219100
508.460395,-9548.656652,-148.041188,306.438199
508.460710,-9178.553681,-370.102971,689.485948
508.461026,-9252.574275,-740.205942,536.266849
508.461342,-9474.636058,-370.102971,459.657299
508.461657,-9474.636058,-518.144159,689.485948
508.461973,-9400.615463,-518.144159,153.219100
508.462289,-9326.594869,-444.123565,459.657299
508.462604,-8660.409521,74.020594,536.266849
508.462920,-9400.615463,0.000000,459.657299
508.463236,-9474.636058,0.000000,0.000000
508.463551,-9696.697840,222.061783,153.219100
508.463867,-9548.656652,0.000000,383.047749
508.464183,-9400.615463,370.102971,0.000000
508.464498,-9622.677246,888.247130,459.657299
508.464814,-9770.718434,1036.288319,766.095498
508.465130,-9844.739029,592.164754,766.095498
508.465445,-9844.739029,148.041188,1608.800546
508.465761,-9844.739029,222.061783,536.266849
508.466077,-9622.677246,0.000000,153.219100
508.466392,-10066.800811,0.000000,229.828649
508.466708,-9622.677246,-888.247130,0.000000
508.467024,-9326.594869,-1110.308913,-306.438199
508.467339,-9400.615463,-518.144159,-1149.143247
508.467655,-9622.677246,0.000000,-919.314598
508.467971,-9992.780217,740.205942,-612.876398
508.468286,-9918.759623,814.226536,1378.971896
508.468602,-10066.800811,296.082377,229.828649
508.468918,-10066.800811,740.205942,76.609550
508.469233,-10510.924376,0.000000,536.266849
508.469549,-9918.759623,-592.164754,383.047749
508.469865,-7772.162391,-1406.391290,-383.047749
508.470180,-9474.636058,-1036.288319,-459.657299
508.470496,-9400.615463,-1554.432478,-383.047749
508.470812,-9252.574275,-2146.597232,-306.438199
508.471127,-9326.594869,-2738.761985,-689.485948
508.471443,-8808.450710,-2368.659014,-689.485948
508.471759,-9178.553681,-1776.494261,-229.828649
508.472074,-9548.656652,-1628.453072,0.000000
508.472390,-8882.471304,-1702.473667,-153.219100
508.472706,-9104.533087,-1628.453072,2374.896044
508.473021,-9326.594869,-1184.329507,-153.219100
508.473337,-9326.594869,-1110.308913,229.828649
508.473653,-9178.553681,-814.226536,0.000000
508.473968,-8808.450710,-1184.329507,0.000000
508.474284,-8808.450710,-740.205942,229.828649
508.474600,-9400.615463,-1480.411884,153.219100
508.474915,-8808.450710,-1406.391290,459.657299
508.475231,-8660.409521,-1702.473667,76.609550
508.475547,-8808.450710,-1776.494261,2374.896044
508.475862,-9178.553681,-1554.432478,153.219100
508.476178,-9104.533087,-1628.453072,229.828649
508.476494,-9252.574275,-1850.514855,0.000000
508.476809,-9178.553681,-1628.453072,229.828649
508.477125,-9400.615463,-1702.473667,1302.362347
508.477441,-9474.636058,-592.164754,76.609550
508.477756,-9326.594869,-1554.432478,-766.095498
508.478072,-9400.615463,-962.267725,-612.876398
508.478388,-9918.759623,444.123565,1532.190996
508.478703,-10288.862594,148.041188,1685.410096
508.479019,-10066.800811,74.020594,1225.752797
508.479335,-10066.800811,-222.061783,383.047749
508.479650,-10362.883188,-962.267725,-306.438199
508.479966,-9474.636058,-666.185348,-842.705048
508.480282,-9992.780217,-592.164754,-306.438199
508.480597,-9770.718434,-1036.288319,-689.485948
508.480913,-9622.677246,-666.185348,-612.876398
508.481229,-9844.739029,-370.102971,-383.047749
508.481544,-9918.759623,-444.123565,-229.828649
508.481860,-9548.656652,-370.102971,-229.828649
508.482176,-9770.718434,-296.082377,-766.095498
508.482491,-9696.697840,0.000000,-153.219100
508.482807,-10066.800811,222.061783,1455.581446
508.483123,-10362.883188,814.226536,536.266849
508.483438,-9918.759623,666.185348,919.314598
508.483754,-9696.697840,222.061783,153.219100
508.484070,-9992.780217,444.123565,0.000000
508.484385,-9474.636058,814.226536,-459.657299
508.484701,-9474.636058,-148.041188,153.219100
508.485017,-8956.491898,-592.164754,-919.314598
508.485332,-8808.450710,-296.082377,-612.876398
508.485648,-9178.553681,-444.123565,306.438199
508.485964,-9252.574275,-1480.411884,689.485948
508.486279,-9326.594869,-1702.473667,0.000000
508.486595,-8882.471304,-1184.329507,-383.047749
508.486911,-9104.533087,-740.205942,0.000000
508.487226,-9178.553681,-814.226536,229.828649
508.487542,-9178.553681,-222.061783,306.438199
508.487857,-9400.615463,-740.205942,306.438199
508.488173,-9252.574275,-740.205942,536.266849
508.488489,-9992.780217,-1258.350101,536.266849
508.488804,-9178.553681,-296.082377,229.828649
508.489120,-9178.553681,-1184.329507,153.219100
508.489436,-9030.512492,-1332.370696,0.000000
508.489751,-9178.553681,-1702.473667,0.000000
508.490067,-8364.327145,-1702.473667,153.219100
508.490383,-9104.533087,-1628.453072,76.609550
508.490698,-9104.533087,-1480.411884,383.047749
508.491014,-9326.594869,-1924.535449,0.000000
508.491330,-9178.553681,-1406.391290,0.000000
508.491645,-8882.471304,-1406.391290,-153.219100
508.491961,-9400.615463,-1480.411884,-383.047749
508.492277,-9548.656652,-1332.370696,0.000000
508.492592,-9548.656652,-1110.308913,76.609550
508.492908,-9400.615463,-1406.391290,383.047749
508.493224,-9622.677246,-1110.308913,153.219100
508.493539,-9918.759623,-962.267725,383.047749
508.493855,-9622.677246,-962.267725,383.047749
508.494171,-9474.636058,-814.226536,229.828649
508.494486,-9918.759623,-1110.308913,0.000000
508.494802,-9548.656652,-1258.350101,76.609550
508.495118,-9252.574275,-1110.308913,0.000000
508.495433,-9400.615463,-1036.288319,-229.828649
508.495749,-9474.636058,-1110.308913,-306.438199
508.496065,-9622.677246,-962.267725,76.609550
508.496380,-9696.697840,-666.185348,0.000000
508.496696,-10066.800811,-592.164754,0.000000
508.497012,-9918.759623,-148.041188,306.438199
508.497327,-10436.903782,-296.082377,919.314598
508.497643,-9770.718434,-148.041188,153.219100
508.497959,-10288.862594,0.000000,306.438199
508.498274,-10140.821405,74.020594,306.438199
508.498590,-9844.739029,222.061783,229.828649
508.498906,-9548.656652,-740.205942,306.438199
508.499221,-9918.759623,-444.123565,76.609550
508.499537,-9770.718434,-148.041188,0.000000
508.499853,-10214.842000,-518.144159,0.000000
508.500168,-9474.636058,-222.061783,0.000000
508.500484,-9770.718434,-814.226536,-229.828649
508.500800,-9252.574275,-1036.288319,-459.657299
508.501115,-9474.636058,-888.247130,-383.047749
508.501431,-9770.718434,-962.267725,-153.219100
508.501747,-9104.533087,-1036.288319,-689.485948
508.502062,-9400.615463,-444.123565,-536.266849
508.502378,-9696.697840,-148.041188,-306.438199
508.502694,-9844.739029,0.000000,306.438199
508.503009,-9548.656652,0.000000,995.924147
508.503325,-9474.636058,-962.267725,-153.219100
508.503641,-9474.636058,-518.144159,0.000000
508.503956,-9400.615463,0.000000,153.219100
508.504272,-9400.615463,-370.102971,229.828649
508.504588,-9030.512492,-296.082377,306.438199
508.504903,-8734.430116,-740.205942,0.000000
508.505219,-8956.491898,-814.226536,-229.828649
508.505535,-9474.636058,-1332.370696,306.438199
508.505850,-8956.491898,-1554.432478,306.438199
508.506166,-9104.533087,-1110.308913,0.000000
508.506482,-8586.388927,-666.185348,229.828649
508.506797,-9178.553681,-370.102971,0.000000
508.507113,-9030.512492,0.000000,536.266849
508.507429,-8216.285956,-814.226536,0.000000
508.507744,-8956.491898,-592.164754,0.000000
508.508060,-9326.594869,-814.226536,76.609550
508.508376,-9178.553681,-740.205942,459.657299
508.508691,-9326.594869,-1554.432478,306.438199
508.509007,-8660.409521,-2590.720797,689.485948
508.509323,-8882.471304,-2146.597232,0.000000
508.509638,-8882.471304,-1776.494261,0.000000
508.509954,-9030.512492,-1850.514855,76.609550
508.510270,-8438.347739,-1480.411884,0.000000
508.510585,-9400.615463,-888.247130,76.609550
508.510901,-9844.739029,-444.123565,306.438199
508.511217,-9918.759623,-370.102971,459.657299
508.511532,-9992.780217,-296.082377,459.657299
508.511848,-9178.553681,0.000000,-842.705048
508.512164,-9770.718434,0.000000,0.000000
508.512479,-9918.759623,0.000000,0.000000
508.512795,-9844.739029,0.000000,-153.219100
508.513111,-9548.656652,0.000000,-842.705048
508.513426,-9844.739029,0.000000,306.438199
508.513742,-9770.718434,-222.061783,0.000000
508.514058,-9622.677246,0.000000,153.219100
508.514373,-9770.718434,74.020594,0.000000
508.514689,-9770.718434,518.144159,306.438199
508.515005,-10066.800811,296.082377,-229.828649
508.515320,-10214.842000,296.082377,-153.219100
508.515636,-10214.842000,296.082377,0.000000
508.515952,-10288.862594,148.041188,-383.047749
508.516267,-9918.759623,74.020594,0.000000
508.516583,-10288.862594,0.000000,153.219100
508.516899,-9918.759623,-148.041188,0.000000
508.517214,-9548.656652,-666.185348,0.000000
508.517530,-9400.615463,-1036.288319,306.438199
508.517846,-9770.718434,-740.205942,0.000000
508.518161,-9474.636058,-518.144159,459.657299
508.518477,-9548.656652,-444.123565,153.219100
508.518793,-9622.677246,-444.123565,0.000000
508.519108,-10955.047942,296.082377,842.705048
508.519424,-9474.636058,-1110.308913,0.000000
508.519740,-9400.615463,-1554.432478,153.219100
508.520055,-9474.636058,-1406.391290,-229.828649
508.520371,-9400.615463,-888.247130,-689.485948
508.520687,-8956.491898,-962.267725,0.000000
508.521002,-8956.491898,-962.267725,0.000000
508.521318,-8956.491898,-962.267725,-153.219100
508.521633,-9252.574275,-666.185348,76.609550
508.521949,-8882.471304,222.061783,842.705048
508.522265,-9104.533087,-666.185348,153.219100
508.522580,-8808.450710,-518.144159,0.000000
508.522896,-9178.553681,-888.247130,153.219100
508.523211,-9474.636058,-666.185348,383.047749
508.523527,-9474.636058,-1406.391290,229.828649
508.523843,-9030.512492,-1406.391290,383.047749
508.524158,-8660.409521,-1480.411884,0.000000
508.524474,-8956.491898,-1480.411884,-229.828649
508.524789,-6957.935855,-1924.535449,383.047749
508.525105,-9030.512492,-1184.329507,0.000000
508.525421,-8882.471304,-1554.432478,153.219100
508.525736,-9030.512492,-1480.411884,-153.219100
508.526052,-9326.594869,-962.267725,-229.828649
508.526367,-9548.656652,-962.267725,153.219100
508.526683,-9474.636058,-962.267725,153.219100
508.526999,-9400.615463,-1184.329507,0.000000
508.527314,-9326.594869,-1332.370696,0.000000
508.527630,-9252.574275,-1184.329507,1455.581446
508.527945,-9548.656652,-1554.432478,229.828649
508.528261,-9474.636058,-1480.411884,0.000000
508.528577,-9622.677246,-1110.308913,-306.438199
508.528892,-9474.636058,-962.267725,-229.828649
508.529208,-9104.533087,-740.205942,-306.438199
508.529523,-9400.615463,-962.267725,0.000000
508.529839,-9622.677246,-592.164754,0.000000
508.530155,-9770.718434,-370.102971,0.000000
508.530470,-9622.677246,-740.205942,0.000000
508.530786,-9844.739029,0.000000,-153.219100
508.531101,-9696.697840,-592.164754,0.000000
508.531417,-9622.677246,-888.247130,-383.047749
508.531733,-9992.780217,-962.267725,0.000000
508.532048,-10214.842000,-444.123565,-2298.286494
508.532364,-9548.656652,-666.185348,0.000000
508.532679,-9696.697840,-592.164754,0.000000
508.532995,-9770.718434,-592.164754,0.000000
508.533311,-9992.780217,-444.123565,0.000000
508.533626,-8956.491898,-518.144159,0.000000
508.533942,-9918.759623,-740.205942,229.828649
508.534257,-9844.739029,-592.164754,0.000000
508.534573,-10066.800811,-296.082377,0.000000
508.534889,-9992.780217,-666.185348,153.219100
508.535204,-9548.656652,-814.226536,76.609550
508.535520,-9992.780217,-148.041188,0.000000
508.535835,-9548.656652,-518.144159,0.000000
508.536151,-9770.718434,-740.205942,76.609550
508.536467,-9252.574275,-1184.329507,459.657299
508.536782,-9992.780217,-814.226536,536.266849
508.537098,-9252.574275,-740.205942,383.047749
508.537413,-10140.821405,-1332.370696,229.828649
508.537729,-8808.450710,-592.164754,153.219100
508.538045,-9770.718434,-666.185348,0.000000
508.538360,-9178.553681,-888.247130,0.000000
508.538676,-9696.697840,-888.247130,76.609550
508.538991,-8882.471304,-740.205942,0.000000
508.539307,-9474.636058,-1258.350101,76.609550
508.539623,-9252.574275,-1184.329507,-229.828649
508.539938,-9400.615463,-592.164754,-459.657299
508.540254,-9178.553681,-370.102971,0.000000
508.540569,-8956.491898,-444.123565,0.000000
508.540885,-9104.533087,-814.226536,0.000000
508.541201,-8956.491898,-888.247130,459.657299
508.541516,-9104.533087,-1036.288319,153.219100
508.541832,-8734.430116,-962.267725,0.000000
508.542147,-8808.450710,-1406.391290,-383.047749
508.542463,-8586.388927,-1110.308913,0.000000
508.542779,-9030.512492,-666.185348,0.000000
508.543094,-9326.594869,-1258.350101,229.828649
508.543410,-8808.450710,-1036.288319,153.219100
508.543725,-9992.780217,-814.226536,153.219100
508.544041,-8956.491898,-1332.370696,0.000000
508.544357,-8956.491898,-1628.453072,0.000000
508.544672,-9104.533087,-1480.411884,-459.657299
508.544988,-9178.553681,-1628.453072,76.609550
508.545303,-9252.574275,-1406.391290,306.438199
508.545619,-9178.553681,-1776.494261,229.828649
508.545935,-9474.636058,-962.267725,306.438199
508.546250,-9770.718434,-962.267725,383.047749
508.546566,-9548.656652,-148.041188,-919.314598
508.546881,-9770.718434,-444.123565,229.828649
508.547197,-9770.718434,-814.226536,-153.219100
508.547513,-9622.677246,-814.226536,0.000000
508.547828,-9696.697840,-888.247130,0.000000
508.548144,-9918.759623,-740.205942,0.000000
508.548459,-9548.656652,-1036.288319,-306.438199
508.548775,-9400.615463,-740.205942,-229.828649
508.549091,-9548.656652,-888.247130,-153.219100
508.549406,-10140.821405,-666.185348,0.000000
508.549722,-9548.656652,-518.144159,76.609550
508.550037,-9844.739029,-222.061783,153.219100
508.550353,-9992.780217,-296.082377,612.876398
508.550669,-10436.903782,-518.144159,306.438199
508.550984,-9252.574275,148.041188,1072.533697
508.551300,-9992.780217,370.102971,-229.828649
508.551615,-10066.800811,0.000000,0.000000
508.551931,-10066.800811,-222.061783,-306.438199
508.552247,-10066.800811,0.000000,-306.438199
508.552562,-9770.718434,-148.041188,-153.219100
508.552878,-9696.697840,-148.041188,0.000000
508.553193,-9918.759623,0.000000,0.000000
508.553509,-9474.636058,370.102971,76.609550
508.553825,-9770.718434,444.123565,-995.924147
508.554140,-9844.739029,0.000000,0.000000
508.554456,-9918.759623,-296.082377,76.609550
508.554771,-9474.636058,370.102971,0.000000
508.555087,-9548.656652,148.041188,919.314598
508.555403,-9844.739029,-148.041188,153.219100
508.555718,-9400.615463,-370.102971,0.000000
508.556034,-9622.677246,-296.082377,306.438199
508.556349,-9474.636058,-1110.308913,0.000000
508.556665,-9770.718434,-1480.411884,-1762.019645
508.556981,-9104.533087,-1702.473667,0.000000
508.557296,-8956.491898,-1554.432478,0.000000
508.557612,-8216.285956,-1480.411884,-229.828649
508.557927,-9252.574275,-1702.473667,0.000000
508.558243,-8068.244768,-1480.411884,-306.438199
508.558559,-8808.450710,-1850.514855,0.000000
508.558874,-8734.430116,-1850.514855,-536.266849
508.559190,-8734.430116,-1554.432478,-383.047749
508.559505,-8660.409521,-666.185348,-306.438199
508.559821,-9104.533087,-666.185348,-459.657299
508.560136,-8956.491898,-296.082377,306.438199
508.560452,-9326.594869,0.000000,0.000000
508.560768,-9474.636058,370.102971,383.047749
508.561083,-9474.636058,0.000000,919.314598
508.561399,-9178.553681,222.061783,766.095498
508.561714,-9178.553681,296.082377,153.219100
508.562030,-8882.471304,222.061783,-383.047749
508.562346,-9104.533087,-296.082377,-306.438199
508.562661,-9178.553681,0.000000,-229.828649
508.562977,-9252.574275,0.000000,-153.219100
508.563292,-9474.636058,74.020594,0.000000
508.563608,-9844.739029,-296.082377,306.438199
508.563924,-9474.636058,-518.144159,229.828649
508.564239,-9474.636058,148.041188,76.609550
508.564555,-9770.718434,222.061783,0.000000
508.564870,-9992.780217,444.123565,0.000000
508.565186,-10066.800811,740.205942,229.828649
508.565502,-10288.862594,1110.308913,229.828649
508.565817,-10658.965565,1110.308913,995.924147
508.566133,-10584.944971,370.102971,919.314598
508.566448,-10214.842000,1036.288319,229.828649
508.566764,-11029.068536,2294.638420,-1455.581446
508.567080,-10066.800811,1258.350101,0.000000
508.567395,-9548.656652,962.267725,0.000000
508.567711,-9770.718434,1110.308913,76.609550
508.568026,-9548.656652,962.267725,-229.828649
508.568342,-9326.594869,222.061783,0.000000
508.568658,-9770.718434,740.205942,-306.438199
508.568973,-9770.718434,1332.370696,76.609550
508.569289,-9918.759623,1628.453072,0.000000
508.569604,-10140.821405,2368.659014,1838.629195
508.569920,-9770.718434,888.247130,306.438199
508.570236,-9622.677246,592.164754,229.828649
508.570551,-9844.739029,592.164754,153.219100
508.570867,-9548.656652,518.144159,229.828649
508.571182,-8734.430116,148.041188,0.000000
508.571498,-8956.491898,0.000000,-306.438199
508.571814,-8956.491898,740.205942,0.000000
508.572129,-9400.615463,0.000000,76.609550
508.572445,-9400.615463,-222.061783,229.828649
508.572760,-8956.491898,-222.061783,76.609550
508.573076,-8808.450710,0.000000,229.828649
508.573392,-9326.594869,222.061783,306.438199
508.573707,-9400.615463,-740.205942,76.609550
508.574023,-9104.533087,-222.061783,0.000000
508.574338,-8956.491898,-296.082377,0.000000
508.574654,-9326.594869,-1184.329507,0.000000
508.574970,-8956.491898,-592.164754,459.657299
508.575285,-9104.533087,-740.205942,229.828649
508.575601,-9030.512492,-962.267725,229.828649
508.575916,-9326.594869,-592.164754,0.000000
508.576232,-9474.636058,-592.164754,76.609550
508.576548,-9178.553681,-444.123565,306.438199
508.576863,-9104.533087,-1258.350101,76.609550
508.577179,-9622.677246,-666.185348,-229.828649
508.577494,-9178.553681,0.000000,0.000000
508.577810,-9844.739029,-444.123565,0.000000
508.578126,-8956.491898,-296.082377,0.000000
508.578441,-9696.697840,0.000000,306.438199
508.578757,-9104.533087,-370.102971,0.000000
508.579072,-9844.739029,-148.041188,0.000000
508.579388,-9252.574275,0.000000,0.000000
508.579704,-9844.739029,0.000000,2451.505594
508.580019,-9400.615463,296.082377,0.000000
508.580335,-10140.821405,222.061783,76.609550
508.580650,-9474.636058,592.164754,0.000000
508.580966,-10066.800811,148.041188,76.609550
508.581282,-9918.759623,222.061783,306.438199
508.581597,-10140.821405,148.041188,76.609550
508.581913,-9770.718434,666.185348,229.828649
508.582228,-9770.718434,74.020594,383.047749
508.582544,-9622.677246,518.144159,306.438199
508.582860,-10140.821405,592.164754,689.485948
508.583175,-9844.739029,592.164754,153.219100
508.583491,-9770.718434,888.247130,0.000000
508.583806,-10066.800811,592.164754,0.000000
508.584122,-9918.759623,296.082377,-536.266849
508.584438,-10066.800811,518.144159,153.219100
508.584753,-10066.800811,814.226536,76.609550
508.585069,-9770.718434,370.102971,0.000000
508.585384,-9918.759623,592.164754,0.000000
508.585700,-9622.677246,0.000000,153.219100
508.586016,-9474.636058,814.226536,0.000000
508.586331,-9770.718434,0.000000,0.000000
508.586647,-9844.739029,296.082377,76.609550
508.586962,-9474.636058,222.061783,0.000000
508.587278,-9918.759623,296.082377,229.828649
508.587594,-9548.656652,0.000000,0.000000
508.587909,-9622.677246,222.061783,153.219100
508.588225,-9474.636058,222.061783,0.000000
508.588540,-9770.718434,148.041188,229.828649
508.588856,-9178.553681,0.000000,0.000000
508.589172,-9326.594869,-222.061783,-229.828649
508.589487,-9326.594869,0.000000,306.438199
508.589803,-9178.553681,-370.102971,0.000000
508.590118,-8734.430116,-296.082377,459.657299
508.590434,-8882.471304,-518.144159,229.828649
508.590750,-8956.491898,-666.185348,0.000000
508.591065,-8808.450710,-444.123565,0.000000
508.591381,-9474.636058,-962.267725,0.000000
508.591696,-8882.471304,-814.226536,306.438199
508.592012,-8808.450710,-666.185348,-229.828649
508.592328,-8660.409521,-370.102971,0.000000
508.592643,-9252.574275,-222.061783,229.828649
508.592959,-8956.491898,-222.061783,536.266849
508.593274,-9178.553681,-1036.288319,153.219100
508.593590,-8956.491898,-222.061783,229.828649
508.593906,-9252.574275,-222.061783,0.000000
508.594221,-9030.512492,0.000000,766.095498
508.594537,-9326.594869,-518.144159,76.609550
508.594852,-9030.512492,-444.123565,-153.219100
508.595168,-9252.574275,0.000000,0.000000
508.595484,-9992.780217,-296.082377,0.000000
508.595799,-9622.677246,0.000000,229.828649
508.596115,-9326.594869,0.000000,0.000000
508.596430,-9326.594869,444.123565,0.000000
508.596746,-9918.759623,370.102971,0.000000
508.597062,-10140.821405,0.000000,842.705048
508.597377,-9918.759623,296.082377,383.047749
508.597693,-9622.677246,-222.061783,0.000000
508.598008,-9918.759623,-444.123565,-229.828649
508.598324,-10066.800811,-592.164754,153.219100
508.598640,-9252.574275,74.020594,229.828649
508.598955,-9622.677246,0.000000,153.219100
508.599271,-9918.759623,222.061783,-383.047749
508.599586,-9918.759623,962.267725,0.000000
508.599902,-9992.780217,1628.453072,76.609550
508.600218,-9992.780217,1406.391290,306.438199
508.600533,-10066.800811,1258.350101,0.000000
508.600849,-10362.883188,1036.288319,-153.219100
508.601164,-10362.883188,888.247130,0.000000
508.601480,-8882.471304,0.000000,-153.219100
508.601796,-9622.677246,0.000000,-306.438199
508.602111,-9622.677246,148.041188,0.000000
508.602427,-9622.677246,74.020594,76.609550
508.602742,-9548.656652,-370.102971,0.000000
508.603058,-9326.594869,-444.123565,0.000000
508.603374,-9400.615463,-592.164754,-229.828649
508.603689,-9548.656652,-740.205942,306.438199
508.604005,-9770.718434,-592.164754,0.000000
508.604320,-9474.636058,-666.185348,1608.800546
508.604636,-9696.697840,-592.164754,459.657299
508.604951,-9770.718434,-518.144159,306.438199
508.605267,-9844.739029,-962.267725,689.485948
508.605583,-9400.615463,-1110.308913,0.000000
508.605898,-8586.388927,-888.247130,0.000000
508.606214,-8882.471304,-592.164754,0.000000
508.606529,-8882.471304,-518.144159,383.047749
508.606845,-8808.450710,-592.164754,76.609550
508.607161,-8660.409521,-444.123565,229.828649
508.607476,-9030.512492,-296.082377,0.000000
508.607792,-9178.553681,-222.061783,229.828649
508.608107,-9474.636058,74.020594,306.438199
508.608423,-8956.491898,0.000000,0.000000
508.608739,-8808.450710,-296.082377,-383.047749
508.609054,-9474.636058,148.041188,0.000000
508.609370,-9326.594869,592.164754,-153.219100
508.609685,-9326.594869,1036.288319,0.000000
508.610001,-9252.574275,962.267725,153.219100
508.610317,-9548.656652,962.267725,306.438199
508.610632,-9548.656652,74.020594,153.219100
508.610948,-9548.656652,-370.102971,0.000000
508.611263,-9474.636058,-444.123565,0.000000
508.611579,-9918.759623,-666.185348,689.485948
508.611895,-9030.512492,-888.247130,-153.219100
508.612210,-9474.636058,-1036.288319,-229.828649
508.612526,-9400.615463,-740.205942,76.609550
508.612841,-9696.697840,-592.164754,0.000000
508.613157,-9844.739029,74.020594,0.000000
508.613473,-9474.636058,0.000000,76.609550
508.613788,-9548.656652,666.185348,0.000000
508.614104,-10140.821405,592.164754,0.000000
508.614419,-10362.883188,962.267725,1225.752797
508.614735,-9770.718434,666.185348,383.047749
508.615051,-9474.636058,962.267725,0.000000
508.615366,-9770.718434,962.267725,0.000000
508.615682,-10214.842000,962.267725,0.000000
508.615997,-9696.697840,592.164754,-459.657299
508.616313,-9326.594869,74.020594,153.219100
508.616629,-9326.594869,0.000000,-229.828649
508.616944,-9326.594869,74.020594,-383.047749
508.617260,-9474.636058,296.082377,76.609550
508.617575,-9474.636058,222.061783,229.828649
508.617891,-9770.718434,444.123565,229.828649
508.618207,-9844.739029,1036.288319,229.828649
508.618522,-10436.903782,1110.308913,383.047749
508.618838,-9992.780217,962.267725,76.609550
508.619153,-9918.759623,1258.350101,229.828649
508.619469,-10140.821405,1258.350101,229.828649
508.619785,-9918.759623,1036.288319,76.609550
508.620100,-9918.759623,444.123565,153.219100
508.620416,-9770.718434,222.061783,306.438199
508.620731,-9252.574275,222.061783,0.000000
508.621047,-9474.636058,-148.041188,0.000000
508.621363,-9696.697840,0.000000,383.047749
508.621678,-8956.491898,518.144159,2451.505594
508.621994,-9400.615463,222.061783,0.000000
508.622309,-9622.677246,0.000000,76.609550
508.622625,-9696.697840,0.000000,0.000000
508.622941,-9474.636058,148.041188,76.609550
508.623256,-9622.677246,296.082377,1915.238745
508.623572,-9770.718434,0.000000,536.266849
508.623887,-9770.718434,74.020594,229.828649
508.624203,-9548.656652,222.061783,306.438199
508.624518,-9252.574275,-296.082377,229.828649
508.624834,-9400.615463,0.000000,-383.047749
508.625150,-9104.533087,-296.082377,0.000000
508.625465,-8808.450710,-296.082377,-459.657299
508.625781,-8512.368333,-592.164754,-306.438199
508.626096,-9178.553681,-740.205942,2221.676944
508.626412,-9104.533087,-296.082377,0.000000
508.626727,-9696.697840,222.061783,153.219100
508.627043,-8882.471304,0.000000,76.609550
508.627359,-9474.636058,74.020594,0.000000
508.627674,-8956.491898,222.061783,0.000000
508.627990,-9548.656652,296.082377,0.000000
508.628305,-9178.553681,518.144159,0.000000
508.628621,-9474.636058,0.000000,0.000000
508.628936,-9178.553681,74.020594,-383.047749
508.629252,-9252.574275,296.082377,153.219100
508.629568,-9474.636058,148.041188,229.828649
508.629883,-9474.636058,-222.061783,383.047749
508.630199,-9474.636058,-592.164754,0.000000
508.630514,-9252.574275,-814.226536,1072.533697
508.630830,-9696.697840,-296.082377,0.000000
508.631145,-9326.594869,0.000000,229.828649
508.631461,-10214.842000,0.000000,229.828649
508.631777,-9474.636058,148.041188,0.000000
508.632092,-10066.800811,148.041188,76.609550
508.632408,-10140.821405,370.102971,76.609550
508.632723,-9696.697840,666.185348,153.219100
508.633039,-10288.862594,666.185348,0.000000
508.633354,-9622.677246,444.123565,-1532.190996
508.633670,-10066.800811,888.247130,-306.438199
508.633985,-10140.821405,592.164754,0.000000
508.634301,-10066.800811,666.185348,76.609550
508.634617,-9918.759623,148.041188,0.000000
508.634932,-9548.656652,148.041188,-612.876398
508.635248,-9770.718434,888.247130,0.000000
508.635563,-9770.718434,666.185348,0.000000
508.635879,-9474.636058,814.226536,-229.828649
508.636194,-10066.800811,666.185348,0.000000
508.636510,-9622.677246,814.226536,-306.438199
508.636826,-9696.697840,1332.370696,0.000000
508.637141,-10066.800811,962.267725,306.438199
508.637457,-9844.739029,592.164754,76.609550
508.637772,-9400.615463,888.247130,-153.219100
508.638088,-9252.574275,296.082377,306.438199
508.638403,-9770.718434,222.061783,76.609550
508.638719,-9474.636058,-370.102971,-153.219100
508.639035,-8586.388927,-222.061783,-612.876398
508.639350,-9030.512492,-296.082377,-612.876398
508.639666,-9252.574275,-370.102971,0.000000
508.639981,-9252.574275,-592.164754,0.000000
508.640297,-8808.450710,-814.226536,-383.047749
508.640612,-9104.533087,-1258.350101,612.876398
508.640928,-9400.615463,-296.082377,76.609550
508.641244,-9326.594869,-592.164754,153.219100
508.641559,-9252.574275,-444.123565,76.609550
508.641875,-9030.512492,-370.102971,153.219100
508.642190,-9326.594869,-296.082377,1072.533697
508.642506,-9770.718434,-296.082377,689.485948
508.642821,-9178.553681,-518.144159,459.657299
508.643137,-9104.533087,-296.082377,306.438199
508.643453,-9400.615463,-148.041188,-1225.752797
508.643768,-9474.636058,-814.226536,153.219100
508.644084,-9252.574275,-814.226536,0.000000
508.644399,-9104.533087,-740.205942,459.657299
508.644715,-9326.594869,-1036.288319,76.609550
508.645030,-9400.615463,-518.144159,153.219100
508.645346,-9030.512492,0.000000,0.000000
508.645662,-9252.574275,74.020594,306.438199
508.645977,-9474.636058,222.061783,76.609550
508.646293,-9992.780217,0.000000,229.828649
508.646608,-9844.739029,370.102971,229.828649
508.646924,-9474.636058,222.061783,153.219100
508.647239,-9770.718434,0.000000,0.000000
508.647555,-9400.615463,0.000000,0.000000
508.647871,-8882.471304,1332.370696,-536.266849
508.648186,-9622.677246,148.041188,-306.438199
508.648502,-9696.697840,-148.041188,-612.876398
508.648817,-9400.615463,814.226536,-459.657299
508.649133,-10066.800811,666.185348,229.828649
508.649448,-9992.780217,148.041188,0.000000
508.649764,-9844.739029,-444.123565,383.047749
508.650080,-10214.842000,-1036.288319,383.047749
508.650395,-9622.677246,-740.205942,153.219100
508.650711,-10584.944971,296.082377,-1149.143247
508.651026,-9548.656652,-740.205942,0.000000
508.651342,-9844.739029,-592.164754,383.047749
508.651657,-9548.656652,-962.267725,229.828649
508.651973,-9844.739029,-888.247130,383.047749
508.652289,-9844.739029,-1406.391290,229.828649
508.652604,-9030.512492,-1998.556043,-842.705048
508.652920,-8808.450710,-1924.535449,-1149.143247
508.653235,-9178.553681,-1184.329507,-1225.752797
508.653551,-9030.512492,-1480.411884,-766.095498
508.653866,-9474.636058,-2146.597232,0.000000
508.654182,-9252.574275,-2368.659014,-689.485948
508.654498,-9326.594869,-1702.473667,0.000000
508.654813,-9474.636058,-1036.288319,229.828649
508.655129,-9326.594869,-1036.288319,995.924147
508.655444,-9474.636058,-444.123565,536.266849
508.655760,-9770.718434,-1480.411884,766.095498
508.656075,-9474.636058,-1332.370696,459.657299
508.656391,-9252.574275,-1406.391290,536.266849
508.656707,-9474.636058,-1258.350101,229.828649
508.657022,-9178.553681,-1110.308913,-229.828649
508.657338,-9400.615463,-1554.432478,-306.438199
508.657653,-9104.533087,-1480.411884,0.000000
508.657969,-7328.038826,-1258.350101,-1685.410096
508.658284,-9252.574275,-1258.350101,-306.438199
508.658600,-9622.677246,-1258.350101,306.438199
508.658916,-8734.430116,-2442.679609,-995.924147
508.659231,-9474.636058,-2368.659014,-1838.629195
508.659547,-9178.553681,-296.082377,459.657299
508.659862,-9178.553681,148.041188,1532.190996
508.660178,-9992.780217,74.020594,1302.362347
508.660493,-10362.883188,0.000000,995.924147
508.660809,-9474.636058,0.000000,76.609550
508.661124,-10807.006753,-888.247130,0.000000
508.661440,-10066.800811,-592.164754,0.000000
508.661756,-9548.656652,0.000000,-306.438199
508.662071,-9622.677246,-518.144159,-612.876398
508.662387,-9770.718434,-592.164754,-306.438199
508.662702,-9474.636058,-740.205942,-459.657299
508.663018,-9474.636058,74.020594,0.000000
508.663333,-9918.759623,-370.102971,153.219100
508.663649,-9844.739029,-962.267725,612.876398
508.663965,-9104.533087,-370.102971,-153.219100
508.664280,-9400.615463,0.000000,-229.828649
508.664596,-9474.636058,0.000000,153.219100
508.664911,-9178.553681,0.000000,-383.047749
508.665227,-9178.553681,814.226536,-383.047749
508.665542,-9474.636058,-1110.308913,0.000000
508.665858,-9770.718434,-814.226536,0.000000
508.666174,-9326.594869,0.000000,76.609550
508.666489,-9326.594869,0.000000,0.000000
508.666805,-9252.574275,-222.061783,-153.219100
508.667120,-9104.533087,-518.144159,0.000000
508.667436,-9548.656652,-148.041188,76.609550
508.667751,-9326.594869,-1110.308913,306.438199
508.668067,-9474.636058,-666.185348,995.924147
508.668383,-9400.615463,-1258.350101,0.000000
508.668698,-9474.636058,-814.226536,536.266849
508.669014,-9252.574275,-1332.370696,153.219100
508.669329,-9030.512492,-296.082377,153.219100
508.669645,-9474.636058,-740.205942,306.438199
508.669960,-9030.512492,-888.247130,0.000000
508.670276,-9400.615463,-518.144159,-153.219100
508.670592,-9474.636058,-592.164754,306.438199
508.670907,-9178.553681,-1406.391290,3907.087040
508.671223,-9622.677246,-962.267725,76.609550
508.671538,-9474.636058,-1184.329507,0.000000
508.671854,-9252.574275,-1332.370696,0.000000
508.672169,-9474.636058,-1258.350101,0.000000
508.672485,-8364.327145,-1480.411884,306.438199
508.672801,-9252.574275,-1184.329507,229.828649
508.673116,-9696.697840,-1554.432478,153.219100
508.673432,-9622.677246,-1036.288319,76.609550
508.673747,-9474.636058,-1480.411884,229.828649
508.674063,-9622.677246,-1036.288319,229.828649
508.674378,-9400.615463,-962.267725,0.000000
508.674694,-9548.656652,-962.267725,0.000000
508.675010,-9400.615463,-740.205942,153.219100
508.675325,-9992.780217,-1406.391290,76.609550
508.675641,-9474.636058,-962.267725,229.828649
508.675956,-9474.636058,-962.267725,-306.438199
508.676272,-9326.594869,-888.247130,0.000000
508.676587,-9474.636058,-1036.288319,-383.047749
508.676903,-9178.553681,-888.247130,0.000000
508.677219,-9474.636058,-888.247130,-306.438199
508.677534,-9622.677246,-666.185348,153.219100
508.677850,-9844.739029,-666.185348,383.047749
508.678165,-10658.965565,-518.144159,306.438199
508.678481,-9918.759623,-592.164754,306.438199
508.678796,-9844.739029,-666.185348,0.000000
508.679112,-9622.677246,-592.164754,0.000000
508.679428,-9622.677246,-370.102971,76.609550
508.679743,-10140.821405,0.000000,0.000000
508.680059,-9844.739029,-814.226536,229.828649
508.680374,-9548.656652,-592.164754,229.828649
508.680690,-9770.718434,-444.123565,-229.828649
508.681005,-9622.677246,0.000000,-229.828649
508.681321,-9918.759623,-148.041188,0.000000
508.681637,-9400.615463,-740.205942,-383.047749
508.681952,-9474.636058,-888.247130,-306.438199
508.682268,-9622.677246,-518.144159,-306.438199
508.682583,-10140.821405,0.000000,-383.047749
508.682899,-9696.697840,-814.226536,383.047749
508.683214,-9400.615463,-1110.308913,0.000000
508.683530,-9400.615463,-666.185348,-229.828649
508.683846,-9326.594869,-222.061783,0.000000
508.684161,-9696.697840,-296.082377,1149.143247
508.684477,-9474.636058,-148.041188,153.219100
508.684792,-9400.615463,-370.102971,-153.219100
508.685108,-9474.636058,-444.123565,0.000000
508.685423,-9770.718434,-962.267725,1455.581446
508.685739,-9104.533087,-962.267725,0.000000
508.686054,-8882.471304,-814.226536,0.000000
508.686370,-8956.491898,-518.144159,-229.828649
508.686686,-9400.615463,-444.123565,0.000000
508.687001,-9400.615463,0.000000,459.657299
508.687317,-9326.594869,370.102971,229.828649
508.687632,-8956.491898,0.000000,153.219100
508.687948,-9474.636058,-296.082377,-153.219100
508.688263,-9400.615463,0.000000,0.000000
508.688579,-9030.512492,-1036.288319,0.000000
508.688895,-8956.491898,-1480.411884,-459.657299
508.689210,-9252.574275,-2072.576638,0.000000
508.689526,-9326.594869,-1406.391290,0.000000
508.689841,-9104.533087,-1554.432478,1378.971896
508.690157,-8956.491898,-1184.329507,306.438199
508.690472,-9178.553681,-814.226536,76.609550
508.690788,-9400.615463,-222.061783,306.438199
508.691104,-9696.697840,-592.164754,0.000000
508.691419,-9770.718434,-888.247130,-229.828649
508.691735,-9770.718434,-592.164754,153.219100
508.692050,-9548.656652,0.000000,536.266849
508.692366,-9696.697840,-296.082377,229.828649
508.692681,-9548.656652,444.123565,306.438199
508.692997,-9400.615463,0.000000,-306.438199
508.693313,-9326.594869,-296.082377,0.000000
508.693628,-9474.636058,-518.144159,-306.438199
508.693944,-9474.636058,-518.144159,0.000000
508.694259,-9400.615463,74.020594,-766.095498
508.694575,-9622.677246,74.020594,0.000000
508.694890,-9844.739029,148.041188,0.000000
508.695206,-9918.759623,74.020594,0.000000
508.695522,-10066.800811,74.020594,383.047749
508.695837,-9844.739029,0.000000,-153.219100
508.696153,-10066.800811,0.000000,-229.828649
508.696468,-9992.780217,-222.061783,0.000000
508.696784,-9622.677246,-370.102971,153.219100
508.697099,-9548.656652,-888.247130,919.314598
508.697415,-9548.656652,-814.226536,229.828649
508.697731,-9622.677246,-888.247130,153.219100
508.698046,-9474.636058,-888.247130,0.000000
508.698362,-9326.594869,-1036.288319,76.609550
508.698677,-9548.656652,-962.267725,306.438199
508.698993,-9622.677246,-666.185348,76.609550
508.699308,-9770.718434,-370.102971,0.000000
508.699624,-9474.636058,0.000000,0.000000
508.699940,-9696.697840,-296.082377,0.000000
508.700255,-9622.677246,0.000000,0.000000
508.700571,-9844.739029,0.000000,0.000000
508.700886,-9474.636058,-148.041188,0.000000
508.701202,-9400.615463,-592.164754,0.000000
508.701517,-8882.471304,-740.205942,-383.047749
508.701833,-9104.533087,-1110.308913,0.000000
508.702149,-9104.533087,-962.267725,76.609550
508.702464,-9178.553681,-1332.370696,-153.219100
508.702780,-9104.533087,-1628.453072,306.438199
508.703095,-8660.409521,-1480.411884,76.609550
508.703411,-9178.553681,-1480.411884,0.000000
508.703726,-9326.594869,-1258.350101,153.219100
508.704042,-9622.677246,-1480.411884,0.000000
508.704358,-9104.533087,-1628.453072,-842.705048
508.704673,-8882.471304,-1110.308913,0.000000
508.704989,-9178.553681,-518.144159,0.000000
508.705304,-9622.677246,-1036.288319,76.609550
508.705620,-9326.594869,-888.247130,1762.019645
508.705935,-9400.615463,-1036.288319,306.438199
508.706251,-9400.615463,-962.267725,0.000000
508.706567,-9326.594869,-1184.329507,229.828649
508.706882,-9252.574275,-1406.391290,76.609550
508.707198,-9104.533087,-1258.350101,-536.266849
508.707513,-9030.512492,-1628.453072,-229.828649
508.707829,-9400.615463,-1850.514855,0.000000
508.708144,-9252.574275,-1702.473667,0.000000
508.708460,-9400.615463,-2220.617826,0.000000
508.708776,-9474.636058,-1480.411884,0.000000
508.709091,-9474.636058,-1258.350101,-383.047749
508.709407,-9474.636058,-888.247130,0.000000
508.709722,-9770.718434,-666.185348,0.000000
508.710038,-9400.615463,-592.164754,1838.629195
508.710353,-9992.780217,-814.226536,153.219100
508.710669,-10066.800811,-888.247130,306.438199
508.710985,-9844.739029,-814.226536,306.438199
508.711300,-9844.739029,-518.144159,76.609550
508.711616,-9770.718434,-740.205942,0.000000
508.711931,-9474.636058,-814.226536,0.000000
508.712247,-9622.677246,-814.226536,-229.828649
508.712562,-9474.636058,-518.144159,0.000000
508.712878,-9548.656652,-666.185348,-153.219100
508.713193,-9770.718434,-518.144159,76.609550
508.713509,-9844.739029,-814.226536,76.609550
508.713825,-9918.759623,-666.185348,0.000000
508.714140,-9548.656652,-1036.288319,-153.219100
508.714456,-9770.718434,-740.205942,1149.143247
508.714771,-9622.677246,-444.123565,306.438199
508.715087,-10214.842000,-592.164754,383.047749
508.715402,-9474.636058,-518.144159,383.047749
508.715718,-10140.821405,-666.185348,306.438199
508.716034,-9770.718434,-740.205942,459.657299
508.716349,-9992.780217,-666.185348,0.000000
508.716665,-9252.574275,-296.082377,-306.438199
508.716980,-9770.718434,-666.185348,0.000000
508.717296,-9178.553681,-888.247130,0.000000
508.717611,-9992.780217,-518.144159,0.000000
508.717927,-9548.656652,-296.082377,229.828649
508.718243,-9474.636058,-592.164754,229.828649
508.718558,-9474.636058,-1036.288319,0.000000
508.718874,-9326.594869,-666.185348,0.000000
508.719189,-9104.533087,-370.102971,76.609550
508.719505,-9400.615463,-370.102971,0.000000
508.719820,-9548.656652,-888.247130,76.609550
508.720136,-9030.512492,-962.267725,76.609550
508.720452,-9178.553681,-962.267725,0.000000
508.720767,-8808.450710,-1184.329507,153.219100
508.721083,-9178.553681,-1036.288319,306.438199
508.721398,-9178.553681,-1258.350101,76.609550
508.721714,-8882.471304,-1110.308913,306.438199
508.722029,-9252.574275,-1702.473667,0.000000
508.722345,-8808.450710,-1776.494261,0.000000
508.722661,-9030.512492,-1332.370696,153.219100
508.722976,-8956.491898,-1554.432478,0.000000
508.723292,-8956.491898,-1480.411884,153.219100
508.723607,-9252.574275,-1110.308913,0.000000
508.723923,-9104.533087,-1258.350101,459.657299
508.724238,-9400.615463,-740.205942,459.657299
508.724554,-9918.759623,-740.205942,689.485948
508.724870,-9030.512492,-1110.308913,0.000000
508.725185,-9178.553681,-962.267725,-306.438199
508.725501,-9252.574275,-1184.329507,-383.047749
508.725816,-9178.553681,-1332.370696,-306.438199
508.726132,-9474.636058,-962.267725,-306.438199
508.726448,-9474.636058,-1258.350101,76.609550
508.726763,-9622.677246,-1184.329507,-153.219100
508.727079,-9474.636058,-962.267725,-229.828649
508.727394,-8956.491898,-740.205942,-383.047749
508.727710,-9770.718434,-962.267725,0.000000
508.728026,-9918.759623,-592.164754,229.828649
508.728341,-9918.759623,-296.082377,383.047749
508.728657,-10214.842000,-222.061783,689.485948
508.728972,-9992.780217,-148.041188,1378.971896
508.729288,-10436.903782,0.000000,459.657299
508.729603,-9992.780217,0.000000,229.828649
508.729919,-9696.697840,-370.102971,0.000000
508.730235,-9474.636058,-814.226536,306.438199
508.730550,-9400.615463,222.061783,-919.314598
508.730866,-9622.677246,444.123565,-612.876398
508.731181,-9548.656652,0.000000,-153.219100
508.731497,-10584.944971,0.000000,229.828649
508.731813,-10807.006753,0.000000,76.609550
508.732128,-10140.821405,148.041188,383.047749
508.732444,-9918.759623,-222.061783,536.266849
508.732759,-10066.800811,148.041188,536.266849
508.733075,-9030.512492,0.000000,1838.629195
508.733391,-10214.842000,0.000000,689.485948
508.733706,-9400.615463,-444.123565,306.438199
508.734022,-10214.842000,-888.247130,229.828649
508.734337,-9474.636058,-888.247130,0.000000
508.734653,-9844.739029,-444.123565,612.876398
508.734968,-9178.553681,-1110.308913,-995.924147
508.735284,-9252.574275,-1554.432478,-919.314598
508.735600,-8734.430116,-1110.308913,-306.438199
508.735915,-9030.512492,-1924.535449,-306.438199
508.736231,-9326.594869,-2072.576638,-612.876398
508.736546,-8956.491898,-1702.473667,0.000000
508.736862,-8956.491898,-1110.308913,0.000000
508.737178,-8586.388927,-518.144159,76.609550
508.737493,-8438.347739,222.061783,536.266849
508.737809,-9400.615463,0.000000,306.438199
508.738124,-9474.636058,-296.082377,995.924147
508.738440,-9474.636058,-740.205942,0.000000
508.738756,-9252.574275,0.000000,-459.657299
508.739071,-9030.512492,296.082377,0.000000
508.739387,-8882.471304,370.102971,-536.266849
508.739702,-8956.491898,74.020594,-689.485948
508.740018,-8586.388927,0.000000,-383.047749
508.740333,-9326.594869,-1628.453072,-536.266849
508.740649,-9104.533087,-888.247130,0.000000
508.740965,-9030.512492,-222.061783,-229.828649
508.741280,-9030.512492,0.000000,-153.219100
508.741596,-9326.594869,0.000000,0.000000
508.741911,-9400.615463,518.144159,-1378.971896
508.742227,-9696.697840,666.185348,0.000000
508.742543,-9770.718434,296.082377,306.438199
508.742858,-10140.821405,148.041188,383.047749
508.743174,-10510.924376,814.226536,383.047749
508.743489,-10066.800811,1406.391290,766.095498
508.743805,-10140.821405,1184.329507,766.095498
508.744120,-10214.842000,888.247130,383.047749
508.744436,-9770.718434,888.247130,0.000000
508.744752,-9326.594869,1998.556043,-842.705048
508.745067,-10214.842000,1184.329507,229.828649
508.745383,-9844.739029,888.247130,229.828649
508.745698,-9474.636058,888.247130,536.266849
508.746014,-9770.718434,888.247130,153.219100
508.746330,-10288.862594,814.226536,536.266849
508.746645,-9548.656652,962.267725,229.828649
508.746961,-9622.677246,518.144159,0.000000
508.747276,-9770.718434,296.082377,-153.219100
508.747592,-9474.636058,666.185348,-306.438199
508.747908,-9622.677246,444.123565,306.438199
508.748223,-9474.636058,370.102971,0.000000
508.748539,-9400.615463,518.144159,-536.266849
508.748854,-9252.574275,1184.329507,-383.047749
508.749170,-9844.739029,814.226536,-306.438199
508.749485,-9474.636058,814.226536,76.609550
508.749801,-9474.636058,814.226536,76.609550
508.750117,-9770.718434,370.102971,536.266849
508.750432,-10288.862594,518.144159,536.266849
508.750748,-9474.636058,296.082377,689.485948
508.751063,-9030.512492,0.000000,612.876398
508.751379,-9474.636058,0.000000,306.438199
508.751695,-9252.574275,-740.205942,76.609550
508.752010,-9104.533087,-666.185348,-689.485948
508.752326,-8882.471304,-888.247130,-306.438199
508.752641,-8956.491898,-1110.308913,-459.657299
508.752957,-8956.491898,-518.144159,-306.438199
508.753273,-9326.594869,-518.144159,-919.314598
508.753588,-9252.574275,-518.144159,76.609550
508.753904,-9548.656652,-296.082377,76.609550
508.754219,-9696.697840,-296.082377,306.438199
508.754535,-9548.656652,0.000000,536.266849
508.754850,-9548.656652,0.000000,0.000000
508.755166,-8956.491898,-296.082377,76.609550
508.755482,-9770.718434,-222.061783,-306.438199
508.755797,-8808.450710,-518.144159,0.000000
508.756113,-9622.677246,-370.102971,0.000000
508.756428,-9104.533087,-666.185348,-383.047749
508.756744,-9474.636058,0.000000,0.000000
508.757060,-9622.677246,-296.082377,153.219100
508.757375,-9622.677246,0.000000,153.219100
508.757691,-8956.491898,222.061783,-229.828649
508.758006,-9622.677246,0.000000,0.000000
508.758322,-9474.636058,148.041188,0.000000
508.758638,-9992.780217,296.082377,0.000000
508.758953,-9622.677246,296.082377,153.219100
508.759269,-9474.636058,518.144159,766.095498
508.759584,-9770.718434,370.102971,153.219100
508.759900,-9918.759623,74.020594,459.657299
508.760215,-9918.759623,518.144159,383.047749
508.760531,-9474.636058,740.205942,0.000000
508.760847,-9326.594869,0.000000,153.219100
508.761162,-9696.697840,0.000000,0.000000
508.761478,-9770.718434,444.123565,153.219100
508.761793,-9622.677246,222.061783,0.000000
508.762109,-9400.615463,1406.391290,0.000000
508.762425,-9622.677246,666.185348,76.609550
508.762740,-9770.718434,518.144159,76.609550
508.763056,-9844.739029,740.205942,0.000000
508.763371,-9622.677246,444.123565,0.000000
508.763687,-9474.636058,888.247130,-306.438199
508.764003,-9770.718434,518.144159,76.609550
508.764318,-9696.697840,740.205942,153.219100
508.764634,-9548.656652,296.082377,76.609550
508.764949,-9918.759623,370.102971,612.876398
508.765265,-9622.677246,222.061783,0.000000
508.765580,-9992.780217,74.020594,76.609550
508.765896,-9400.615463,222.061783,153.219100
508.766212,-9474.636058,0.000000,0.000000
508.766527,-9474.636058,148.041188,-306.438199
508.766843,-9474.636058,74.020594,-306.438199
508.767158,-9400.615463,518.144159,0.000000
508.767474,-9474.636058,0.000000,0.000000
508.767790,-9474.636058,-592.164754,-229.828649
508.768105,-9474.636058,0.000000,0.000000
508.768421,-9178.553681,0.000000,383.047749
508.768736,-9030.512492,-592.164754,306.438199
508.769052,-9178.553681,-296.082377,0.000000
508.769368,-9474.636058,222.061783,0.000000
508.769683,-9104.533087,-444.123565,383.047749
508.769999,-8882.471304,-666.185348,76.609550
508.770314,-8956.491898,-740.205942,0.000000
508.770630,-9252.574275,-370.102971,1608.800546
508.770945,-9548.656652,0.000000,229.828649
508.771261,-9252.574275,-222.061783,229.828649
508.771577,-9104.533087,-666.185348,0.000000
508.771892,-8956.491898,0.000000,76.609550
508.772208,-9474.636058,-1628.453072,612.876398
508.772523,-9474.636058,-518.144159,459.657299
508.772839,-9400.615463,-370.102971,153.219100
508.773155,-8956.491898,518.144159,0.000000
508.773470,-9770.718434,370.102971,1225.752797
508.773786,-9696.697840,0.000000,0.000000
508.774101,-9918.759623,-222.061783,0.000000
508.774417,-9474.636058,-444.123565,76.609550
508.774732,-9622.677246,-814.226536,-306.438199
508.775048,-9622.677246,-1036.288319,1225.752797
508.775364,-9696.697840,-666.185348,229.828649
508.775679,-9326.594869,-444.123565,76.609550
508.775995,-9622.677246,-444.123565,76.609550
508.776310,-9548.656652,74.020594,-306.438199
508.776626,-10807.006753,1332.370696,0.000000
508.776942,-9770.718434,1110.308913,0.000000
508.777257,-10510.924376,814.226536,0.000000
508.777573,-9992.780217,1036.288319,0.000000
508.777888,-10288.862594,888.247130,1072.533697
508.778204,-9696.697840,222.061783,229.828649
508.778520,-9918.759623,-222.061783,76.609550
508.778835,-9474.636058,0.000000,0.000000
