#time,accel_x,accel_y,accel_z
372.602591,-9474.636058,-296.082377,0.000000
372.602907,-9400.615463,-592.164754,0.000000
372.603222,-9474.636058,-296.082377,383.047749
372.603538,-9474.636058,0.000000,0.000000
372.603854,-9548.656652,-296.082377,0.000000
372.604170,-9474.636058,-296.082377,0.000000
372.604485,-9474.636058,0.000000,0.000000
372.604801,-8956.491898,-518.144159,0.000000
372.605117,-9400.615463,-370.102971,0.000000
372.605432,-9474.636058,-296.082377,0.000000
372.605748,-9474.636058,-370.102971,76.609550
372.606064,-9400.615463,-296.082377,-766.095498
372.606380,-10140.821405,222.061783,153.219100
372.606695,-9474.636058,-370.102971,76.609550
372.607011,-9474.636058,-296.082377,0.000000
372.607327,-9474.636058,-444.123565,306.438199
372.607643,-9474.636058,0.000000,229.828649
372.607958,-9474.636058,-370.102971,0.000000
372.608274,-9474.636058,-296.082377,306.438199
372.608590,-9622.677246,-444.123565,229.828649
372.608905,-9400.615463,-370.102971,306.438199
372.609221,-10881.027347,592.164754,-842.705048
372.609537,-9474.636058,-370.102971,0.000000
372.609853,-9474.636058,-296.082377,76.609550
372.610168,-9474.636058,-222.061783,0.000000
372.610484,-9474.636058,-222.061783,1149.143247
372.610800,-9696.697840,0.000000,-153.219100
372.611115,-9696.697840,-296.082377,0.000000
372.611431,-9622.677246,0.000000,229.828649
372.611747,-9622.677246,-444.123565,76.609550
372.612063,-9918.759623,74.020594,153.219100
372.612378,-9326.594869,-296.082377,-306.438199
372.612694,-9474.636058,0.000000,0.000000
372.613010,-9548.656652,74.020594,-229.828649
372.613326,-9696.697840,-296.082377,0.000000
372.613641,-10510.924376,1258.350101,1225.752797
372.613957,-9622.677246,-888.247130,229.828649
372.614273,-9622.677246,-740.205942,0.000000
372.614588,-9252.574275,-888.247130,-306.438199
372.614904,-9474.636058,-222.061783,-306.438199
372.615220,-8734.430116,-444.123565,306.438199
372.615536,-9696.697840,-962.267725,0.000000
372.615851,-9474.636058,-1258.350101,-612.876398
372.616167,-8956.491898,-814.226536,-1072.533697
372.616483,-8882.471304,0.000000,-766.095498
372.616799,-9548.656652,0.000000,0.000000
372.617114,-9770.718434,-962.267725,-229.828649
372.617430,-9326.594869,-1702.473667,-1455.581446
372.617746,-8956.491898,-666.185348,-1378.971896
372.618061,-9622.677246,74.020594,1608.800546
372.618377,-10066.800811,-666.185348,-383.047749
372.618693,-9178.553681,-1036.288319,-1302.362347
372.619009,-8734.430116,-148.041188,-1915.238745
372.619324,-9474.636058,518.144159,-1225.752797
372.619640,-10362.883188,0.000000,-459.657299
372.619956,-9844.739029,-888.247130,-1608.800546
372.620272,-8586.388927,148.041188,-1608.800546
372.620587,-9844.739029,1184.329507,-1072.533697
372.620903,-10436.903782,666.185348,-995.924147
372.621219,-9844.739029,444.123565,-536.266849
372.621534,-9178.553681,740.205942,-766.095498
372.621850,-10066.800811,0.000000,-842.705048
372.622166,-10140.821405,296.082377,-766.095498
372.622482,-9474.636058,-148.041188,-383.047749
372.622797,-8956.491898,0.000000,-842.705048
372.623113,-8586.388927,-444.123565,-1378.971896
372.623429,-10214.842000,-444.123565,-1149.143247
372.623745,-9696.697840,-814.226536,-612.876398
372.624060,-9474.636058,-592.164754,-995.924147
372.624376,-9030.512492,-592.164754,-842.705048
372.624692,-9918.759623,-592.164754,-689.485948
372.625007,-9474.636058,-296.082377,-459.657299
372.625323,-9474.636058,-592.164754,-689.485948
372.625639,-9252.574275,-296.082377,-536.266849
372.625955,-9770.718434,-296.082377,383.047749
372.626270,-10881.027347,74.020594,842.705048
372.626586,-9474.636058,370.102971,919.314598
372.626902,-10066.800811,-148.041188,919.314598
372.627218,-9992.780217,0.000000,612.876398
372.627533,-9770.718434,-518.144159,995.924147
372.627849,-9918.759623,0.000000,1149.143247
372.628165,-8882.471304,-814.226536,229.828649
372.628480,-9400.615463,-1702.473667,0.000000
372.628796,-8586.388927,-444.123565,-536.266849
372.629112,-9178.553681,-1110.308913,-153.219100
372.629428,-9030.512492,-222.061783,0.000000
372.629743,-8734.430116,-2294.638420,-383.047749
372.630059,-9696.697840,0.000000,459.657299
372.630375,-9030.512492,-1184.329507,153.219100
372.630691,-9918.759623,0.000000,383.047749
372.631006,-9104.533087,0.000000,612.876398
372.631322,-8956.491898,-1776.494261,1378.971896
372.631638,-9178.553681,-296.082377,766.095498
372.631953,-9992.780217,0.000000,689.485948
372.632269,-9104.533087,-518.144159,229.828649
372.632585,-9918.759623,-518.144159,0.000000
372.632901,-9326.594869,-74.020594,0.000000
372.633216,-9770.718434,-148.041188,-383.047749
372.633532,-8956.491898,-148.041188,-612.876398
372.633848,-9844.739029,-148.041188,-383.047749
372.634164,-9104.533087,-370.102971,-919.314598
372.634479,-9992.780217,-222.061783,-306.438199
372.634795,-9030.512492,-222.061783,-536.266849
372.635111,-9622.677246,-592.164754,-766.095498
372.635426,-9178.553681,-148.041188,-1072.533697
372.635742,-9474.636058,-370.102971,-919.314598
372.636058,-8808.450710,0.000000,-1378.971896
372.636374,-9104.533087,-1110.308913,-1762.019645
372.636689,-9474.636058,0.000000,-1072.533697
372.637005,-9178.553681,-888.247130,-1225.752797
372.637321,-9326.594869,-222.061783,-1532.190996
372.637636,-9104.533087,296.082377,-919.314598
372.637952,-10214.842000,-592.164754,-612.876398
372.638268,-9770.718434,370.102971,-383.047749
372.638584,-9252.574275,-592.164754,-612.876398
372.638899,-9844.739029,-296.082377,-919.314598
372.639215,-9770.718434,814.226536,-459.657299
372.639531,-10510.924376,-370.102971,-766.095498
372.639846,-9252.574275,296.082377,-766.095498
372.640162,-10214.842000,222.061783,-689.485948
372.640477,-9474.636058,-518.144159,-1302.362347
372.640793,-9844.739029,592.164754,-306.438199
372.641109,-9770.718434,-666.185348,-306.438199
372.641424,-8808.450710,-740.205942,-1838.629195
372.641740,-9474.636058,-148.041188,-995.924147
372.642055,-9918.759623,-518.144159,-919.314598
372.642371,-9474.636058,-296.082377,-153.219100
372.642687,-9770.718434,370.102971,0.000000
372.643002,-9548.656652,-148.041188,383.047749
372.643318,-10140.821405,444.123565,919.314598
372.643633,-10214.842000,148.041188,1225.752797
372.643949,-9770.718434,-444.123565,995.924147
372.644265,-9622.677246,518.144159,1532.190996
372.644580,-10214.842000,148.041188,1072.533697
372.644896,-9992.780217,-518.144159,1685.410096
372.645211,-9252.574275,444.123565,1915.238745
372.645527,-9770.718434,-1258.350101,1762.019645
372.645843,-9548.656652,-518.144159,1455.581446
372.646158,-8364.327145,-1332.370696,1378.971896
372.646474,-9474.636058,-1776.494261,766.095498
372.646790,-8438.347739,0.000000,1072.533697
372.647105,-9400.615463,-1480.411884,1378.971896
372.647421,-9474.636058,-592.164754,1149.143247
372.647736,-9104.533087,-1258.350101,1838.629195
372.648052,-9770.718434,-444.123565,1915.238745
372.648368,-9400.615463,-888.247130,2145.067394
372.648683,-10066.800811,-222.061783,2221.676944
372.648999,-8956.491898,-1110.308913,995.924147
372.649314,-9696.697840,0.000000,2145.067394
372.649630,-9104.533087,-1036.288319,1838.629195
372.649946,-9548.656652,-222.061783,1608.800546
372.650261,-9252.574275,-962.267725,1378.971896
372.650577,-8808.450710,0.000000,995.924147
372.650892,-9104.533087,-1036.288319,612.876398
372.651208,-9178.553681,0.000000,612.876398
372.651524,-8956.491898,-962.267725,459.657299
372.651839,-9178.553681,666.185348,306.438199
372.652155,-8956.491898,-814.226536,-229.828649
372.652470,-9548.656652,0.000000,612.876398
372.652786,-8882.471304,-296.082377,383.047749
372.653102,-9918.759623,-518.144159,153.219100
372.653417,-8660.409521,888.247130,1378.971896
372.653733,-9992.780217,-962.267725,0.000000
372.654049,-8882.471304,296.082377,0.000000
372.654364,-9622.677246,-1036.288319,-766.095498
372.654680,-9104.533087,-222.061783,-612.876398
372.654995,-9030.512492,-592.164754,-919.314598
372.655311,-9696.697840,-592.164754,-766.095498
372.655627,-9252.574275,-222.061783,-919.314598
372.655942,-9474.636058,0.000000,-1072.533697
372.656258,-8586.388927,0.000000,-2374.896044
372.656573,-9326.594869,222.061783,-1149.143247
372.656889,-10362.883188,444.123565,0.000000
372.657205,-9844.739029,148.041188,-459.657299
372.657520,-9770.718434,370.102971,0.000000
372.657836,-10658.965565,370.102971,1225.752797
372.658151,-9770.718434,0.000000,-383.047749
372.658467,-9474.636058,370.102971,-306.438199
372.658783,-10066.800811,0.000000,-383.047749
372.659098,-9622.677246,-518.144159,-536.266849
372.659414,-9252.574275,296.082377,-766.095498
372.659729,-9770.718434,0.000000,-612.876398
372.660045,-9696.697840,-666.185348,-766.095498
372.660361,-9400.615463,-444.123565,-842.705048
372.660676,-9474.636058,222.061783,-612.876398
372.660992,-9548.656652,-518.144159,153.219100
372.661308,-9622.677246,-444.123565,0.000000
372.661623,-10066.800811,74.020594,689.485948
372.661939,-9992.780217,592.164754,1685.410096
372.662254,-9992.780217,-444.123565,1532.190996
372.662570,-10140.821405,-740.205942,1225.752797
372.662886,-9326.594869,74.020594,1762.019645
372.663201,-10436.903782,666.185348,2068.457845
372.663517,-10584.944971,-1184.329507,2451.505594
372.663832,-9696.697840,-1036.288319,1149.143247
372.664148,-8586.388927,-740.205942,689.485948
372.664464,-9474.636058,444.123565,1455.581446
372.664779,-10214.842000,-1258.350101,1608.800546
372.665095,-9178.553681,-2368.659014,459.657299
372.665410,-7698.141797,-1110.308913,229.828649
372.665726,-9178.553681,-296.082377,766.095498
372.666042,-9696.697840,444.123565,1991.848295
372.666357,-9918.759623,-666.185348,2374.896044
372.666673,-8882.471304,-1776.494261,2068.457845
372.666988,-8660.409521,-814.226536,459.657299
372.667304,-9474.636058,592.164754,1532.190996
372.667620,-10214.842000,74.020594,2145.067394
372.667935,-8734.430116,0.000000,2298.286494
372.668251,-9104.533087,-296.082377,1532.190996
372.668567,-9696.697840,-1332.370696,1455.581446
372.668882,-10214.842000,-1480.411884,1072.533697
372.669198,-8216.285956,-1110.308913,0.000000
372.669513,-7550.100608,-592.164754,-612.876398
372.669829,-8956.491898,-666.185348,0.000000
372.670145,-9474.636058,-962.267725,0.000000
372.670460,-8512.368333,-444.123565,229.828649
372.670776,-9104.533087,-1110.308913,459.657299
372.671091,-10436.903782,-666.185348,919.314598
372.671407,-10288.862594,-370.102971,842.705048
372.671723,-9030.512492,-962.267725,-306.438199
372.672038,-8068.244768,-592.164754,-1532.190996
372.672354,-7994.224174,-592.164754,-1532.190996
372.672669,-9622.677246,0.000000,-919.314598
372.672985,-9548.656652,-444.123565,-919.314598
372.673301,-9400.615463,-814.226536,-1302.362347
372.673616,-9030.512492,148.041188,-1149.143247
372.673932,-9918.759623,888.247130,-383.047749
372.674247,-10362.883188,1036.288319,383.047749
372.674563,-9622.677246,888.247130,612.876398
372.674879,-9992.780217,296.082377,842.705048
372.675194,-10732.986159,-592.164754,0.000000
372.675510,-10140.821405,444.123565,153.219100
372.675826,-9548.656652,222.061783,0.000000
372.676141,-8808.450710,-666.185348,-1072.533697
372.676457,-9252.574275,-666.185348,-1455.581446
372.676772,-9030.512492,0.000000,-766.095498
372.677088,-9326.594869,-1184.329507,-995.924147
372.677404,-9252.574275,-888.247130,-1225.752797
372.677719,-9400.615463,-962.267725,-1378.971896
372.678035,-10066.800811,222.061783,0.000000
372.678350,-9918.759623,370.102971,-612.876398
372.678666,-10066.800811,518.144159,306.438199
372.678982,-10140.821405,1036.288319,1378.971896
372.679297,-10955.047942,148.041188,1762.019645
372.679613,-10955.047942,0.000000,2145.067394
372.679928,-10214.842000,148.041188,1532.190996
372.680244,-9844.739029,-444.123565,1072.533697
372.680560,-10066.800811,-740.205942,842.705048
372.680875,-9474.636058,-740.205942,-153.219100
372.681191,-8808.450710,-592.164754,306.438199
372.681506,-9252.574275,-962.267725,-229.828649
372.681822,-9474.636058,-962.267725,-229.828649
372.682138,-9844.739029,-592.164754,766.095498
372.682453,-9548.656652,-222.061783,766.095498
372.682769,-9918.759623,740.205942,1302.362347
372.683085,-10140.821405,1258.350101,2681.334243
372.683400,-10807.006753,444.123565,3217.601092
372.683716,-9992.780217,-888.247130,2911.162892
372.684031,-9326.594869,-296.082377,1838.629195
372.684347,-9474.636058,-740.205942,306.438199
372.684663,-9104.533087,-1036.288319,536.266849
372.684978,-8216.285956,-1110.308913,-383.047749
372.685294,-8216.285956,-1850.514855,-689.485948
372.685609,-7846.182985,-2516.700203,0.000000
372.685925,-9030.512492,-2812.782580,-1072.533697
372.686241,-8734.430116,-1628.453072,-995.924147
372.686556,-8438.347739,74.020594,0.000000
372.686872,-10214.842000,444.123565,1378.971896
372.687187,-11917.315666,592.164754,-766.095498
372.687503,-9844.739029,74.020594,2374.896044
372.687819,-9844.739029,1184.329507,2451.505594
372.688134,-10140.821405,1702.473667,3140.991542
372.688450,-10881.027347,666.185348,2911.162892
372.688765,-9474.636058,-814.226536,1762.019645
372.689081,-8068.244768,-740.205942,-383.047749
372.689397,-7920.203579,-444.123565,-766.095498
372.689712,-8660.409521,-1628.453072,-1072.533697
372.690028,-8068.244768,-2664.741391,-2451.505594
372.690344,-6957.935855,-2664.741391,-2911.162892
372.690659,-7402.059420,-888.247130,-2604.724693
372.690975,-9326.594869,-1628.453072,-1685.410096
372.691290,-9030.512492,-2072.576638,-1302.362347
372.691606,-8290.306550,-296.082377,306.438199
372.691922,-9696.697840,222.061783,842.705048
372.692237,-11399.171507,296.082377,1762.019645
372.692553,-10955.047942,1554.432478,2451.505594
372.692868,-10288.862594,1258.350101,2451.505594
372.693184,-10362.883188,1406.391290,2068.457845
372.693500,-10955.047942,1332.370696,1762.019645
372.693815,-11325.150913,740.205942,1685.410096
372.694131,-9104.533087,-296.082377,229.828649
372.694446,-9104.533087,-1480.411884,-766.095498
372.694762,-9400.615463,-962.267725,-1072.533697
372.695078,-9252.574275,-888.247130,-1225.752797
372.695393,-8438.347739,-1554.432478,-1455.581446
372.695709,-8808.450710,-1332.370696,-1378.971896
372.696024,-8364.327145,-1036.288319,-1149.143247
372.696340,-9918.759623,-296.082377,0.000000
372.696656,-10140.821405,370.102971,229.828649
372.696971,-9474.636058,296.082377,995.924147
372.697287,-10807.006753,148.041188,1072.533697
372.697603,-10584.944971,518.144159,1762.019645
372.697918,-10658.965565,518.144159,2374.896044
372.698234,-10362.883188,666.185348,1915.238745
372.698549,-9770.718434,-222.061783,1302.362347
372.698865,-10955.047942,-592.164754,536.266849
372.699181,-9622.677246,148.041188,689.485948
372.699496,-9622.677246,-962.267725,766.095498
372.699812,-9252.574275,-296.082377,76.609550
372.700127,-9474.636058,-1332.370696,-229.828649
372.700443,-8882.471304,518.144159,229.828649
372.700759,-9474.636058,-1406.391290,383.047749
372.701074,-9696.697840,222.061783,919.314598
372.701390,-9178.553681,-518.144159,766.095498
372.701705,-10436.903782,518.144159,2987.772442
372.702021,-9548.656652,222.061783,1762.019645
372.702337,-9548.656652,0.000000,1149.143247
372.702652,-9030.512492,-370.102971,842.705048
372.702968,-9770.718434,0.000000,995.924147
372.703283,-8216.285956,-814.226536,995.924147
372.703599,-8882.471304,-666.185348,229.828649
372.703915,-8586.388927,-1332.370696,-229.828649
372.704230,-9474.636058,-888.247130,0.000000
372.704546,-8734.430116,-1258.350101,0.000000
372.704862,-9474.636058,-592.164754,0.000000
372.705177,-8808.450710,-1110.308913,0.000000
372.705493,-9622.677246,-592.164754,153.219100
372.705808,-9326.594869,0.000000,766.095498
372.706124,-9844.739029,-222.061783,536.266849
372.706440,-9178.553681,74.020594,1149.143247
372.706755,-9696.697840,-666.185348,919.314598
372.707071,-9400.615463,370.102971,1072.533697
372.707386,-9252.574275,-666.185348,842.705048
372.707702,-9104.533087,444.123565,919.314598
372.708018,-8734.430116,-740.205942,76.609550
372.708333,-9252.574275,-962.267725,-689.485948
372.708649,-8290.306550,-518.144159,-689.485948
372.708964,-9030.512492,-1406.391290,-995.924147
372.709280,-8290.306550,-1406.391290,-306.438199
372.709596,-9104.533087,-370.102971,-766.095498
372.709911,-9326.594869,-888.247130,-383.047749
372.710227,-9400.615463,148.041188,383.047749
372.710542,-9696.697840,-592.164754,0.000000
372.710858,-9696.697840,-370.102971,1072.533697
372.711174,-10140.821405,592.164754,1762.019645
372.711489,-10214.842000,-296.082377,1608.800546
372.711805,-9992.780217,444.123565,1762.019645
372.712121,-10140.821405,0.000000,459.657299
372.712436,-9992.780217,-444.123565,1072.533697
372.712752,-9474.636058,148.041188,919.314598
372.713067,-9696.697840,-666.185348,536.266849
372.713383,-9548.656652,-962.267725,0.000000
372.713699,-9104.533087,-444.123565,-536.266849
372.714014,-9622.677246,-1332.370696,-383.047749
372.714330,-9400.615463,-592.164754,-229.828649
372.714645,-9400.615463,-518.144159,0.000000
372.714961,-10362.883188,296.082377,306.438199
372.715277,-9844.739029,-148.041188,612.876398
372.715592,-9844.739029,0.000000,1072.533697
372.715908,-10288.862594,0.000000,1302.362347
372.716223,-10066.800811,0.000000,1532.190996
372.716539,-10066.800811,148.041188,2681.334243
372.716855,-10214.842000,0.000000,1225.752797
372.717170,-9992.780217,0.000000,766.095498
372.717486,-9844.739029,0.000000,842.705048
372.717801,-9844.739029,-222.061783,536.266849
372.718117,-9622.677246,-592.164754,153.219100
372.718433,-9474.636058,-296.082377,0.000000
372.718748,-9696.697840,0.000000,153.219100
372.719064,-9548.656652,-222.061783,306.438199
372.719380,-9548.656652,-888.247130,0.000000
372.719695,-9474.636058,-222.061783,459.657299
372.720011,-9326.594869,-222.061783,383.047749
372.720326,-9400.615463,-370.102971,0.000000
372.720642,-9178.553681,-518.144159,-306.438199
372.720958,-9252.574275,-814.226536,-536.266849
372.721273,-8956.491898,-888.247130,-306.438199
372.721589,-9178.553681,-666.185348,-306.438199
372.721904,-8808.450710,-666.185348,-153.219100
372.722220,-9030.512492,-444.123565,0.000000
372.722536,-9548.656652,-148.041188,-383.047749
372.722851,-9474.636058,-222.061783,0.000000
372.723167,-9474.636058,148.041188,0.000000
372.723482,-9474.636058,370.102971,306.438199
372.723798,-9844.739029,0.000000,919.314598
372.724114,-9622.677246,0.000000,842.705048
372.724429,-9400.615463,0.000000,842.705048
372.724745,-9474.636058,0.000000,689.485948
372.725060,-9326.594869,148.041188,766.095498
372.725376,-9326.594869,0.000000,76.609550
372.725692,-9030.512492,-518.144159,306.438199
372.726007,-8808.450710,-962.267725,76.609550
372.726323,-8734.430116,-1184.329507,0.000000
372.726639,-8734.430116,-1258.350101,0.000000
372.726954,-8734.430116,-1258.350101,0.000000
372.727270,-8734.430116,-1850.514855,-229.828649
372.727585,-8660.409521,-2294.638420,-766.095498
372.727901,-8808.450710,-2072.576638,-919.314598
372.728217,-9770.718434,-888.247130,-536.266849
372.728532,-8956.491898,-1554.432478,-1225.752797
372.728848,-9178.553681,-1036.288319,-612.876398
372.729163,-9474.636058,0.000000,-612.876398
372.729479,-9918.759623,74.020594,0.000000
372.729795,-10288.862594,1184.329507,536.266849
372.730110,-10881.027347,1036.288319,995.924147
372.730426,-10955.047942,1036.288319,1225.752797
372.730741,-10807.006753,1554.432478,1378.971896
372.731057,-10658.965565,1554.432478,2604.724693
372.731373,-10436.903782,1184.329507,766.095498
372.731688,-9770.718434,296.082377,76.609550
372.732004,-9770.718434,0.000000,-306.438199
372.732319,-9252.574275,-1036.288319,-1225.752797
372.732635,-8956.491898,-1924.535449,-2604.724693
372.732951,-8586.388927,-1628.453072,-2451.505594
372.733266,-8438.347739,-1184.329507,-2834.553343
372.733582,-8808.450710,-1036.288319,-2451.505594
372.733898,-9400.615463,-592.164754,-2145.067394
372.734213,-9622.677246,-296.082377,-1991.848295
372.734529,-9622.677246,0.000000,-995.924147
372.734844,-10510.924376,814.226536,-306.438199
372.735160,-10807.006753,814.226536,842.705048
372.735476,-10881.027347,888.247130,995.924147
372.735791,-10214.842000,1036.288319,1225.752797
372.736107,-10955.047942,1332.370696,1455.581446
372.736422,-10362.883188,1258.350101,1225.752797
372.736738,-10288.862594,148.041188,1072.533697
372.737054,-9474.636058,-222.061783,2681.334243
372.737369,-9474.636058,-888.247130,0.000000
372.737685,-9178.553681,-1036.288319,-383.047749
372.738000,-8734.430116,-1850.514855,-612.876398
372.738316,-8512.368333,-2220.617826,-1225.752797
372.738632,-7624.121203,-1850.514855,-1762.019645
372.738947,-8808.450710,-1480.411884,-1225.752797
372.739263,-8956.491898,-1332.370696,-995.924147
372.739578,-8882.471304,-814.226536,0.000000
372.739894,-8660.409521,-1110.308913,0.000000
372.740210,-9030.512492,-444.123565,-153.219100
372.740525,-9918.759623,518.144159,842.705048
372.740841,-9770.718434,222.061783,919.314598
372.741156,-9696.697840,-296.082377,536.266849
372.741472,-9474.636058,-222.061783,0.000000
372.741787,-9474.636058,-666.185348,229.828649
372.742103,-9326.594869,-148.041188,689.485948
372.742418,-9548.656652,-814.226536,229.828649
372.742734,-9030.512492,-1332.370696,-383.047749
372.743049,-9844.739029,0.000000,-842.705048
372.743365,-9400.615463,-444.123565,0.000000
372.743680,-9400.615463,-814.226536,-536.266849
372.743996,-9030.512492,0.000000,-383.047749
372.744311,-9622.677246,-1110.308913,76.609550
372.744627,-9326.594869,370.102971,-306.438199
372.744942,-9400.615463,444.123565,-229.828649
372.745258,-9474.636058,-666.185348,-612.876398
372.745574,-8586.388927,814.226536,-766.095498
372.745889,-8956.491898,-370.102971,-1608.800546
372.746205,-9326.594869,0.000000,-1149.143247
372.746520,-8586.388927,-148.041188,-1455.581446
372.746836,-9474.636058,-1480.411884,-1378.971896
372.747151,-8586.388927,-518.144159,-1532.190996
372.747467,-9326.594869,-518.144159,-1225.752797
372.747782,-9474.636058,-666.185348,-1225.752797
372.748098,-9252.574275,-592.164754,-766.095498
372.748413,-10362.883188,-148.041188,-306.438199
372.748729,-9844.739029,-74.020594,-1378.971896
372.749044,-11029.068536,740.205942,536.266849
372.749360,-9918.759623,148.041188,536.266849
372.749675,-10807.006753,1036.288319,153.219100
372.749991,-10214.842000,666.185348,459.657299
372.750306,-10362.883188,1406.391290,1762.019645
372.750622,-9474.636058,74.020594,-229.828649
372.750937,-9548.656652,-222.061783,-383.047749
372.751253,-9400.615463,-444.123565,-919.314598
372.751569,-9474.636058,-1036.288319,-1149.143247
372.751884,-8586.388927,-592.164754,-1685.410096
372.752200,-9178.553681,-1406.391290,-1608.800546
372.752515,-8734.430116,-666.185348,-1608.800546
372.752831,-9252.574275,-1258.350101,-1149.143247
372.753146,-9622.677246,-370.102971,-689.485948
372.753462,-9474.636058,-518.144159,-229.828649
372.753777,-10658.965565,-296.082377,0.000000
372.754093,-9548.656652,148.041188,536.266849
372.754408,-10584.944971,74.020594,766.095498
372.754724,-10510.924376,1998.556043,919.314598
372.755039,-10066.800811,74.020594,1378.971896
372.755355,-10732.986159,222.061783,1378.971896
372.755670,-9696.697840,74.020594,919.314598
372.755986,-9918.759623,0.000000,842.705048
372.756301,-9548.656652,-814.226536,229.828649
372.756617,-8660.409521,-444.123565,-306.438199
372.756933,-9474.636058,-814.226536,-153.219100
372.757248,-8586.388927,-1480.411884,-842.705048
372.757564,-8068.244768,148.041188,0.000000
372.757879,-9474.636058,-814.226536,-766.095498
372.758195,-8808.450710,-1554.432478,-1149.143247
372.758510,-8438.347739,-148.041188,-1455.581446
372.758826,-9400.615463,-518.144159,-383.047749
372.759141,-8956.491898,-962.267725,1915.238745
372.759457,-9178.553681,0.000000,0.000000
372.759772,-9622.677246,222.061783,383.047749
372.760088,-10066.800811,296.082377,1225.752797
372.760403,-9696.697840,-962.267725,459.657299
372.760719,-9770.718434,518.144159,536.266849
372.761034,-9770.718434,0.000000,1225.752797
372.761350,-9474.636058,-1036.288319,0.000000
372.761665,-9178.553681,-962.267725,-689.485948
372.761981,-8586.388927,888.247130,-459.657299
372.762296,-8882.471304,-296.082377,-689.485948
372.762612,-9400.615463,-1480.411884,-1225.752797
372.762928,-8586.388927,-1924.535449,-1915.238745
372.763243,-8142.265362,74.020594,-1685.410096
372.763559,-9326.594869,0.000000,-1149.143247
372.763874,-9770.718434,-592.164754,-919.314598
372.764190,-9178.553681,-1184.329507,-1149.143247
372.764505,-8660.409521,-222.061783,-1455.581446
372.764821,-9178.553681,1332.370696,-689.485948
372.765136,-10732.986159,592.164754,842.705048
372.765452,-9992.780217,-222.061783,383.047749
372.765767,-9326.594869,-1184.329507,-766.095498
372.766083,-9400.615463,-296.082377,-842.705048
372.766398,-10658.965565,1406.391290,-1991.848295
372.766714,-9992.780217,444.123565,0.000000
372.767029,-9622.677246,-444.123565,-383.047749
372.767345,-9252.574275,-740.205942,-766.095498
372.767660,-10510.924376,-1184.329507,-536.266849
372.767976,-9622.677246,518.144159,-919.314598
372.768292,-9252.574275,-370.102971,-842.705048
372.768607,-8734.430116,-296.082377,-1762.019645
372.768923,-9548.656652,740.205942,-1225.752797
372.769238,-10288.862594,1036.288319,459.657299
372.769554,-10288.862594,444.123565,-229.828649
372.769869,-9992.780217,-814.226536,383.047749
372.770185,-10214.842000,-296.082377,383.047749
372.770500,-10066.800811,222.061783,229.828649
372.770816,-9474.636058,148.041188,229.828649
372.771131,-8808.450710,-518.144159,-766.095498
372.771447,-8512.368333,-1332.370696,-1838.629195
372.771762,-9252.574275,-1554.432478,-1608.800546
372.772078,-9400.615463,0.000000,-1149.143247
372.772393,-10140.821405,592.164754,229.828649
372.772709,-10436.903782,0.000000,1302.362347
372.773024,-10362.883188,-444.123565,766.095498
372.773340,-10584.944971,-296.082377,612.876398
372.773655,-9326.594869,74.020594,766.095498
372.773971,-9474.636058,1184.329507,1149.143247
372.774287,-10214.842000,1332.370696,1685.410096
372.774602,-10732.986159,296.082377,2068.457845
372.774918,-9770.718434,-666.185348,1685.410096
372.775233,-9622.677246,-814.226536,-766.095498
372.775549,-8882.471304,-2664.741391,-459.657299
372.775864,-7994.224174,-3627.009116,-2528.115143
372.776180,-6587.832884,-2590.720797,-4596.572988
372.776495,-6217.729913,1480.411884,-3753.867940
372.776811,-7920.203579,0.000000,-612.876398
372.777126,-10584.944971,-2294.638420,-536.266849
372.777442,-9326.594869,-1110.308913,306.438199
372.777757,-11177.109724,666.185348,2298.286494
372.778073,-10955.047942,2664.741391,4443.353888
372.778388,-11399.171507,-222.061783,3600.648841
372.778704,-9770.718434,1406.391290,1378.971896
372.779019,-7698.141797,1036.288319,536.266849
372.779335,-11103.089130,-592.164754,1072.533697
372.779651,-9770.718434,-2516.700203,-459.657299
372.779966,-8512.368333,-2146.597232,-995.924147
372.780282,-7624.121203,-2516.700203,-2451.505594
372.780597,-6735.874072,-1924.535449,-4903.011187
372.780913,-7772.162391,-592.164754,-2757.943793
372.781228,-8956.491898,-962.267725,-1378.971896
372.781544,-7031.956449,-1850.514855,-2911.162892
372.781859,-10658.965565,0.000000,-766.095498
372.782175,-10732.986159,222.061783,229.828649
372.782490,-10955.047942,2442.679609,2298.286494
372.782806,-10955.047942,3775.050304,3753.867940
372.783121,-11695.253884,1110.308913,3217.601092
372.783437,-11695.253884,-1406.391290,2987.772442
372.783752,-10288.862594,-888.247130,-306.438199
372.784068,-6143.709319,-592.164754,-1455.581446
372.784383,-8660.409521,0.000000,-1608.800546
372.784699,-8438.347739,-1184.329507,-2757.943793
372.785014,-9474.636058,-1702.473667,-1608.800546
372.785330,-7846.182985,-2294.638420,-2681.334243
372.785646,-8364.327145,-3034.844362,-3294.210641
372.785961,-9696.697840,-1850.514855,-1838.629195
372.786277,-8734.430116,-1036.288319,-2757.943793
372.786592,-9030.512492,1924.535449,-1915.238745
372.786908,-10807.006753,2812.782580,-766.095498
372.787223,-11547.212695,1554.432478,2145.067394
372.787539,-12509.480420,148.041188,3677.258390
372.787854,-10881.027347,222.061783,2221.676944
372.788170,-10288.862594,1258.350101,1991.848295
372.788485,-10510.924376,1998.556043,3294.210641
372.788801,-9844.739029,-1184.329507,76.609550
372.789116,-7846.182985,-1332.370696,-1991.848295
372.789432,-7105.977043,-1850.514855,-3064.381992
372.789747,-9326.594869,-3478.967927,-3294.210641
372.790063,-9474.636058,-3182.885551,-2911.162892
372.790378,-7624.121203,-1924.535449,-3677.258390
372.790694,-7550.100608,0.000000,-2757.943793
372.791010,-9252.574275,-740.205942,-1838.629195
372.791325,-10955.047942,296.082377,-459.657299
372.791641,-11029.068536,888.247130,1532.190996
372.791956,-10807.006753,296.082377,2221.676944
372.792272,-11547.212695,1332.370696,2298.286494
372.792587,-11843.295072,2294.638420,3140.991542
372.792903,-10288.862594,1036.288319,2757.943793
372.793218,-8808.450710,888.247130,919.314598
372.793534,-10066.800811,-1110.308913,229.828649
372.793849,-9252.574275,-1554.432478,-1072.533697
372.794165,-8364.327145,-1406.391290,-2068.457845
372.794480,-7476.080014,-2368.659014,-3294.210641
372.794796,-6883.915261,-1480.411884,-3677.258390
372.795111,-8364.327145,-1850.514855,-2757.943793
372.795427,-9030.512492,-1702.473667,-2451.505594
372.795742,-7624.121203,-1110.308913,-1991.848295
372.796058,-9178.553681,-888.247130,-1072.533697
372.796373,-10658.965565,0.000000,383.047749
372.796689,-10807.006753,666.185348,1608.800546
372.797005,-10436.903782,1850.514855,2068.457845
372.797320,-9844.739029,666.185348,2068.457845
372.797636,-10881.027347,296.082377,1838.629195
372.797951,-9844.739029,740.205942,1378.971896
372.798267,-9622.677246,-740.205942,536.266849
372.798582,-8660.409521,-666.185348,-995.924147
372.798898,-8290.306550,-1628.453072,-1762.019645
372.799213,-8586.388927,-370.102971,-1762.019645
372.799529,-7846.182985,-2220.617826,-1991.848295
372.799844,-8290.306550,-1406.391290,-2068.457845
372.800160,-7994.224174,-1850.514855,-2145.067394
372.800475,-9696.697840,-962.267725,-1302.362347
372.800791,-9622.677246,-296.082377,-153.219100
372.801106,-9400.615463,222.061783,306.438199
372.801422,-9474.636058,-222.061783,459.657299
372.801737,-11103.089130,0.000000,0.000000
372.802053,-10066.800811,370.102971,1378.971896
372.802369,-10066.800811,888.247130,842.705048
372.802684,-9474.636058,-296.082377,612.876398
372.803000,-10288.862594,0.000000,0.000000
372.803315,-9178.553681,0.000000,-383.047749
372.803631,-9770.718434,0.000000,-383.047749
372.803946,-9474.636058,-444.123565,-689.485948
372.804262,-9548.656652,-1110.308913,-1072.533697
372.804577,-9030.512492,592.164754,-2451.505594
372.804893,-9548.656652,-592.164754,-229.828649
372.805208,-9474.636058,444.123565,0.000000
372.805524,-9770.718434,-1110.308913,0.000000
372.805839,-10066.800811,-148.041188,0.000000
372.806155,-9104.533087,-444.123565,-229.828649
372.806470,-9696.697840,-370.102971,-229.828649
372.806786,-9326.594869,74.020594,-153.219100
372.807101,-9992.780217,-740.205942,-306.438199
372.807417,-9474.636058,0.000000,0.000000
372.807732,-9326.594869,74.020594,0.000000
372.808048,-10066.800811,-740.205942,-612.876398
372.808364,-9474.636058,222.061783,-383.047749
372.808679,-10066.800811,-444.123565,-536.266849
372.808995,-9030.512492,-296.082377,-383.047749
372.809310,-9918.759623,74.020594,-536.266849
372.809626,-9918.759623,-444.123565,-229.828649
372.809941,-9474.636058,296.082377,0.000000
372.810257,-10066.800811,-666.185348,-306.438199
372.810572,-9252.574275,-592.164754,0.000000
372.810888,-9252.574275,666.185348,0.000000
372.811203,-9696.697840,-370.102971,0.000000
372.811519,-9178.553681,-518.144159,-536.266849
372.811834,-8956.491898,-518.144159,-689.485948
372.812150,-9178.553681,-1110.308913,-1455.581446
372.812465,-8956.491898,-518.144159,-1532.190996
372.812781,-9030.512492,-592.164754,-1149.143247
372.813096,-9252.574275,-592.164754,-1072.533697
372.813412,-9474.636058,0.000000,-1455.581446
372.813728,-9474.636058,0.000000,-766.095498
372.814043,-9696.697840,-222.061783,-383.047749
372.814359,-9400.615463,-370.102971,-153.219100
372.814674,-9548.656652,0.000000,-306.438199
372.814990,-9770.718434,0.000000,459.657299
372.815305,-9474.636058,-296.082377,153.219100
372.815621,-9474.636058,-444.123565,229.828649
372.815936,-9474.636058,-888.247130,0.000000
372.816252,-9400.615463,-666.185348,0.000000
372.816567,-9104.533087,-740.205942,-536.266849
372.816883,-9178.553681,-592.164754,-459.657299
372.817198,-8808.450710,74.020594,-612.876398
372.817514,-9326.594869,-296.082377,-306.438199
372.817829,-9992.780217,518.144159,0.000000
372.818145,-9474.636058,-296.082377,0.000000
372.818460,-9474.636058,-444.123565,153.219100
372.818776,-9474.636058,0.000000,0.000000
372.819091,-9400.615463,-222.061783,306.438199
372.819407,-9400.615463,-222.061783,-459.657299
372.819723,-9326.594869,-370.102971,459.657299
372.820038,-9548.656652,-814.226536,612.876398
372.820354,-9696.697840,-1036.288319,459.657299
372.820669,-9622.677246,-888.247130,306.438199
372.820985,-9178.553681,-888.247130,459.657299
372.821300,-9548.656652,-888.247130,229.828649
372.821616,-9622.677246,-592.164754,229.828649
372.821931,-9622.677246,-740.205942,76.609550
372.822247,-9622.677246,518.144159,383.047749
372.822562,-10066.800811,-296.082377,459.657299
372.822878,-10066.800811,-222.061783,229.828649
372.823193,-9622.677246,-222.061783,306.438199
372.823509,-9400.615463,370.102971,229.828649
372.823824,-9622.677246,0.000000,612.876398
372.824140,-9918.759623,0.000000,0.000000
372.824455,-9178.553681,0.000000,-306.438199
372.824771,-9178.553681,0.000000,-383.047749
372.825087,-9696.697840,0.000000,-229.828649
372.825402,-9400.615463,-814.226536,-612.876398
372.825718,-9474.636058,-518.144159,-766.095498
372.826033,-9030.512492,-370.102971,-919.314598
372.826349,-9992.780217,-518.144159,-229.828649
372.826664,-9030.512492,-518.144159,-2298.286494
372.826980,-9844.739029,-296.082377,-612.876398
372.827295,-9474.636058,444.123565,0.000000
372.827611,-9918.759623,74.020594,0.000000
372.827926,-10140.821405,666.185348,306.438199
372.828242,-9992.780217,296.082377,1072.533697
372.828557,-9474.636058,962.267725,689.485948
372.828873,-10140.821405,666.185348,766.095498
372.829188,-10362.883188,518.144159,842.705048
372.829504,-9992.780217,0.000000,0.000000
372.829819,-9252.574275,-592.164754,153.219100
372.830135,-9252.574275,-740.205942,459.657299
372.830450,-9252.574275,-1258.350101,229.828649
372.830766,-8586.388927,-1184.329507,0.000000
372.831082,-8956.491898,-1184.329507,-919.314598
372.831397,-8586.388927,-1628.453072,-536.266849
372.831713,-8882.471304,-1628.453072,-153.219100
372.832028,-8956.491898,-1406.391290,0.000000
372.832344,-9400.615463,-814.226536,229.828649
372.832659,-9622.677246,0.000000,842.705048
372.832975,-9992.780217,0.000000,1302.362347
372.833290,-10140.821405,518.144159,1608.800546
372.833606,-10066.800811,370.102971,1991.848295
372.833921,-10288.862594,370.102971,3907.087040
372.834237,-10214.842000,222.061783,2451.505594
372.834552,-9918.759623,74.020594,2068.457845
372.834868,-9474.636058,0.000000,1608.800546
372.835183,-9400.615463,-518.144159,1072.533697
372.835499,-9474.636058,-888.247130,459.657299
372.835814,-8734.430116,-1110.308913,383.047749
372.836130,-8734.430116,-1480.411884,0.000000
372.836446,-8512.368333,-1110.308913,-536.266849
372.836761,-8808.450710,-1258.350101,-842.705048
372.837077,-8808.450710,-888.247130,-612.876398
372.837392,-9104.533087,-370.102971,-612.876398
372.837708,-9104.533087,-296.082377,0.000000
372.838023,-9474.636058,0.000000,229.828649
372.838339,-9400.615463,444.123565,459.657299
372.838654,-9918.759623,370.102971,919.314598
372.838970,-9918.759623,518.144159,1225.752797
372.839285,-10584.944971,814.226536,1685.410096
372.839601,-10140.821405,296.082377,1532.190996
372.839916,-10288.862594,0.000000,1915.238745
372.840232,-10140.821405,-296.082377,1072.533697
372.840547,-9622.677246,-1036.288319,612.876398
372.840861,-9548.656652,-666.185348,383.047749
372.841177,-9474.636058,-1110.308913,0.000000
372.841493,-8290.306550,-814.226536,-612.876398
372.841808,-8882.471304,0.000000,-536.266849
372.842124,-9474.636058,-1406.391290,-689.485948
372.842439,-9104.533087,-592.164754,-306.438199
372.842755,-8882.471304,444.123565,-842.705048
372.843070,-9474.636058,-962.267725,-306.438199
372.843386,-9474.636058,1184.329507,536.266849
372.843702,-10066.800811,-592.164754,153.219100
372.844017,-9474.636058,888.247130,766.095498
372.844333,-8512.368333,-370.102971,-919.314598
372.844648,-10658.965565,-518.144159,612.876398
372.844964,-9326.594869,518.144159,766.095498
372.845280,-10288.862594,-148.041188,536.266849
372.845595,-9622.677246,-222.061783,919.314598
372.845911,-9622.677246,-962.267725,995.924147
372.846226,-9918.759623,-740.205942,766.095498
372.846542,-9474.636058,-666.185348,612.876398
372.846857,-9696.697840,-518.144159,459.657299
372.847173,-9104.533087,-592.164754,229.828649
372.847489,-9696.697840,-296.082377,0.000000
372.847804,-8956.491898,-666.185348,229.828649
372.848120,-9474.636058,-740.205942,0.000000
372.848435,-9104.533087,-518.144159,229.828649
372.848751,-8882.471304,0.000000,0.000000
372.849067,-9104.533087,0.000000,0.000000
372.849382,-9252.574275,-814.226536,76.609550
372.849698,-9474.636058,370.102971,153.219100
372.850013,-9178.553681,-740.205942,0.000000
372.850329,-10066.800811,518.144159,536.266849
372.850645,-9030.512492,-148.041188,919.314598
372.850960,-10510.924376,0.000000,1149.143247
372.851276,-9178.553681,296.082377,1302.362347
372.851591,-9178.553681,0.000000,919.314598
372.851907,-9252.574275,74.020594,1378.971896
372.852222,-9548.656652,-592.164754,1072.533697
372.852538,-9770.718434,-370.102971,1072.533697
372.852854,-8956.491898,-740.205942,459.657299
372.853169,-9104.533087,-296.082377,459.657299
372.853485,-9104.533087,-1184.329507,-153.219100
372.853800,-8512.368333,-666.185348,-459.657299
372.854116,-9252.574275,-1110.308913,0.000000
372.854432,-8586.388927,-962.267725,-1455.581446
372.854747,-8734.430116,-592.164754,-306.438199
372.855063,-9770.718434,-370.102971,229.828649
372.855378,-9252.574275,-592.164754,612.876398
372.855694,-9474.636058,296.082377,766.095498
372.856009,-9622.677246,518.144159,1225.752797
372.856325,-9844.739029,-518.144159,1378.971896
372.856641,-9622.677246,0.000000,1149.143247
372.856956,-10288.862594,148.041188,1532.190996
372.857272,-9844.739029,-444.123565,1532.190996
372.857587,-9548.656652,0.000000,842.705048
372.857903,-9844.739029,148.041188,536.266849
372.858219,-9696.697840,-296.082377,689.485948
372.858534,-9178.553681,-962.267725,-229.828649
372.858850,-9252.574275,-296.082377,-842.705048
372.859165,-9326.594869,370.102971,-229.828649
372.859481,-9400.615463,-814.226536,-536.266849
372.859796,-9770.718434,-1184.329507,-689.485948
372.860112,-8586.388927,-592.164754,-842.705048
372.860428,-9622.677246,888.247130,-2221.676944
372.860743,-9918.759623,222.061783,1225.752797
372.861059,-10658.965565,-962.267725,306.438199
372.861374,-9104.533087,-296.082377,153.219100
372.861690,-9252.574275,814.226536,306.438199
372.862006,-10955.047942,1480.411884,306.438199
372.862321,-10732.986159,222.061783,1915.238745
372.862637,-9770.718434,-1332.370696,689.485948
372.862952,-8512.368333,-1036.288319,-919.314598
372.863268,-9696.697840,296.082377,-153.219100
372.863583,-10066.800811,296.082377,229.828649
372.863899,-9474.636058,-444.123565,689.485948
372.864215,-8956.491898,-666.185348,76.609550
372.864530,-9548.656652,-1406.391290,153.219100
372.864846,-9844.739029,-740.205942,1532.190996
372.865161,-9178.553681,-888.247130,76.609550
372.865477,-8364.327145,444.123565,0.000000
372.865793,-9030.512492,0.000000,76.609550
372.866108,-10436.903782,0.000000,459.657299
372.866424,-9622.677246,0.000000,1149.143247
372.866739,-9104.533087,-370.102971,1378.971896
372.867055,-10214.842000,-888.247130,1072.533697
372.867370,-10510.924376,-1628.453072,612.876398
372.867686,-8586.388927,-518.144159,-306.438199
372.868002,-8216.285956,370.102971,-459.657299
372.868317,-8882.471304,-296.082377,-689.485948
372.868633,-9474.636058,-888.247130,-153.219100
372.868948,-9770.718434,-296.082377,383.047749
372.869264,-9992.780217,0.000000,1072.533697
372.869580,-9918.759623,518.144159,1455.581446
372.869895,-10436.903782,518.144159,2145.067394
372.870211,-10066.800811,740.205942,2298.286494
372.870526,-9844.739029,74.020594,2298.286494
372.870842,-9400.615463,-592.164754,2145.067394
372.871158,-9326.594869,-888.247130,766.095498
372.871473,-9326.594869,-888.247130,459.657299
372.871789,-8142.265362,-740.205942,-612.876398
372.872104,-8364.327145,-1184.329507,-1225.752797
372.872420,-8142.265362,-1258.350101,-1072.533697
372.872735,-8660.409521,-1554.432478,-1532.190996
372.873051,-8808.450710,-962.267725,-766.095498
372.873367,-9844.739029,-1110.308913,-153.219100
372.873682,-9474.636058,-518.144159,153.219100
372.873998,-9770.718434,0.000000,1149.143247
372.874313,-10214.842000,0.000000,1378.971896
372.874629,-10066.800811,-370.102971,1532.190996
372.874945,-9770.718434,74.020594,1072.533697
372.875260,-9548.656652,0.000000,2298.286494
372.875576,-9622.677246,74.020594,459.657299
372.875891,-9178.553681,-148.041188,-612.876398
372.876207,-9326.594869,-222.061783,-842.705048
372.876522,-9252.574275,222.061783,-766.095498
372.876838,-9400.615463,0.000000,-766.095498
372.877154,-9400.615463,0.000000,-306.438199
372.877469,-9400.615463,-148.041188,-383.047749
372.877785,-9548.656652,-296.082377,-306.438199
372.878100,-9918.759623,666.185348,76.609550
372.878416,-9474.636058,-518.144159,-306.438199
372.878732,-9104.533087,0.000000,0.000000
372.879047,-9252.574275,1702.473667,919.314598
372.879363,-10881.027347,1258.350101,2451.505594
372.879678,-11399.171507,740.205942,3217.601092
372.879994,-9918.759623,-1184.329507,2298.286494
372.880309,-9770.718434,-740.205942,1302.362347
372.880625,-9104.533087,-666.185348,689.485948
372.880941,-9400.615463,-444.123565,-229.828649
372.881256,-8882.471304,-1924.535449,306.438199
372.881572,-8586.388927,-2072.576638,-459.657299
372.881887,-8660.409521,-2886.803174,-1072.533697
372.882203,-9326.594869,-2368.659014,-919.314598
372.882519,-8734.430116,-518.144159,-919.314598
372.882834,-9326.594869,-296.082377,306.438199
372.883150,-10214.842000,74.020594,1302.362347
372.883465,-10362.883188,-888.247130,1302.362347
372.883781,-9918.759623,814.226536,1915.238745
372.884096,-9474.636058,1406.391290,3907.087040
372.884412,-11769.274478,592.164754,3294.210641
372.884728,-10732.986159,0.000000,2451.505594
372.885043,-9474.636058,296.082377,1455.581446
372.885359,-9030.512492,1036.288319,995.924147
372.885674,-9844.739029,0.000000,612.876398
372.885990,-9400.615463,-1850.514855,153.219100
372.886306,-7920.203579,-1258.350101,-1302.362347
372.886621,-8068.244768,-666.185348,-1072.533697
372.886937,-9252.574275,-1480.411884,-1072.533697
372.887252,-8068.244768,-2072.576638,-1149.143247
372.887568,-8142.265362,-962.267725,-612.876398
372.887883,-8512.368333,-888.247130,-229.828649
372.888199,-9770.718434,-1036.288319,76.609550
372.888515,-10362.883188,0.000000,1915.238745
372.888830,-9770.718434,0.000000,1685.410096
372.889146,-9400.615463,518.144159,1072.533697
372.889461,-10436.903782,1332.370696,1455.581446
372.889777,-11473.192101,592.164754,2145.067394
372.890093,-9474.636058,814.226536,1072.533697
372.890408,-9696.697840,222.061783,459.657299
372.890724,-10066.800811,-592.164754,383.047749
372.891039,-9104.533087,-222.061783,229.828649
372.891355,-9548.656652,-814.226536,0.000000
372.891670,-8660.409521,-1332.370696,-536.266849
372.891986,-8734.430116,-962.267725,-766.095498
372.892302,-9770.718434,-1332.370696,-306.438199
372.892617,-8586.388927,-740.205942,-536.266849
372.892933,-9326.594869,-518.144159,-1838.629195
372.893248,-9474.636058,-814.226536,-459.657299
372.893564,-9474.636058,-518.144159,0.000000
372.893880,-9844.739029,0.000000,459.657299
372.894195,-9326.594869,222.061783,459.657299
372.894511,-9992.780217,-888.247130,459.657299
372.894826,-9844.739029,444.123565,153.219100
372.895142,-10066.800811,222.061783,536.266849
372.895458,-10066.800811,814.226536,689.485948
372.895773,-9474.636058,-444.123565,842.705048
372.896089,-10140.821405,666.185348,1072.533697
372.896404,-9770.718434,-370.102971,919.314598
372.896720,-10510.924376,0.000000,766.095498
372.897035,-9030.512492,0.000000,919.314598
372.897351,-10732.986159,1258.350101,919.314598
372.897667,-9622.677246,-518.144159,1225.752797
372.897982,-9992.780217,-296.082377,842.705048
372.898298,-8956.491898,-592.164754,536.266849
372.898613,-9622.677246,-518.144159,76.609550
372.898929,-8290.306550,-814.226536,383.047749
372.899245,-9326.594869,-444.123565,0.000000
372.899560,-8808.450710,-814.226536,0.000000
372.899876,-9474.636058,-814.226536,0.000000
372.900191,-8956.491898,-2368.659014,536.266849
372.900507,-9844.739029,-666.185348,612.876398
372.900822,-9252.574275,-444.123565,612.876398
372.901138,-9622.677246,-592.164754,842.705048
372.901454,-9844.739029,222.061783,1149.143247
372.901769,-9548.656652,-222.061783,2374.896044
372.902085,-9992.780217,370.102971,1991.848295
372.902400,-9770.718434,-444.123565,1685.410096
372.902716,-10066.800811,-148.041188,1608.800546
372.903032,-9548.656652,-222.061783,2451.505594
372.903347,-9474.636058,-666.185348,383.047749
372.903663,-8734.430116,74.020594,459.657299
372.903978,-9326.594869,-1036.288319,0.000000
372.904294,-9178.553681,-592.164754,0.000000
372.904609,-8068.244768,296.082377,-536.266849
372.904925,-9030.512492,-1184.329507,-766.095498
372.905241,-8734.430116,0.000000,76.609550
372.905556,-9770.718434,-444.123565,229.828649
372.905872,-8882.471304,-296.082377,766.095498
372.906187,-9918.759623,814.226536,76.609550
372.906503,-9844.739029,-814.226536,1072.533697
372.906819,-9474.636058,0.000000,1608.800546
372.907134,-9770.718434,-370.102971,1378.971896
372.907450,-9548.656652,-1036.288319,1685.410096
372.907765,-9696.697840,-148.041188,766.095498
372.908081,-9696.697840,-1036.288319,229.828649
372.908396,-9326.594869,-1480.411884,0.000000
372.908712,-8586.388927,-370.102971,0.000000
372.909028,-9844.739029,-370.102971,0.000000
372.909343,-9400.615463,-518.144159,-459.657299
372.909659,-9252.574275,-444.123565,-459.657299
372.909974,-9622.677246,-740.205942,-229.828649
372.910290,-9178.553681,-296.082377,-229.828649
372.910606,-9252.574275,-592.164754,-229.828649
372.910921,-9622.677246,222.061783,306.438199
372.911237,-9696.697840,148.041188,383.047749
372.911552,-9696.697840,0.000000,229.828649
372.911868,-9918.759623,222.061783,612.876398
372.912183,-9918.759623,518.144159,1072.533697
372.912499,-9918.759623,74.020594,459.657299
372.912815,-9548.656652,296.082377,0.000000
372.913130,-9696.697840,0.000000,153.219100
372.913446,-9622.677246,-740.205942,0.000000
372.913761,-9474.636058,-370.102971,-306.438199
372.914077,-9326.594869,-666.185348,0.000000
372.914393,-9622.677246,-444.123565,0.000000
372.914708,-9622.677246,-370.102971,0.000000
372.915024,-9474.636058,-444.123565,229.828649
372.915339,-9474.636058,-296.082377,0.000000
372.915655,-9548.656652,-370.102971,0.000000
372.915971,-9770.718434,0.000000,229.828649
372.916286,-9770.718434,0.000000,383.047749
372.916602,-9696.697840,-222.061783,1149.143247
372.916917,-9770.718434,0.000000,689.485948
372.917233,-9696.697840,0.000000,995.924147
372.917548,-9770.718434,0.000000,995.924147
372.917864,-9030.512492,-592.164754,1149.143247
372.918180,-9474.636058,74.020594,766.095498
372.918495,-9622.677246,74.020594,1149.143247
372.918811,-9696.697840,-148.041188,1149.143247
372.919126,-9622.677246,-148.041188,995.924147
372.919442,-9252.574275,-888.247130,995.924147
372.919758,-9474.636058,-370.102971,1149.143247
372.920073,-9622.677246,-296.082377,1302.362347
372.920389,-9474.636058,-814.226536,842.705048
372.920704,-9178.553681,0.000000,0.000000
372.921020,-8808.450710,-1332.370696,0.000000
372.921335,-9326.594869,-1480.411884,0.000000
372.921651,-8882.471304,-1850.514855,-306.438199
372.921967,-8660.409521,-1924.535449,-612.876398
372.922282,-8808.450710,-1184.329507,383.047749
372.922598,-9030.512492,-1258.350101,-919.314598
372.922913,-9178.553681,-518.144159,-1149.143247
372.923229,-9178.553681,-370.102971,-612.876398
372.923545,-9474.636058,148.041188,0.000000
372.923860,-9474.636058,592.164754,766.095498
372.924176,-10584.944971,666.185348,766.095498
372.924491,-10140.821405,888.247130,612.876398
372.924807,-10140.821405,1184.329507,536.266849
372.925122,-10214.842000,814.226536,2374.896044
372.925438,-10362.883188,222.061783,383.047749
372.925754,-9178.553681,-296.082377,-306.438199
372.926069,-8882.471304,-814.226536,-1455.581446
372.926385,-8586.388927,-888.247130,-1991.848295
372.926700,-8586.388927,-962.267725,-1838.629195
372.927016,-8364.327145,-1258.350101,-2681.334243
372.927332,-8364.327145,-1184.329507,-2987.772442
372.927647,-8734.430116,-1036.288319,-2757.943793
372.927963,-9252.574275,-592.164754,-2451.505594
372.928278,-9178.553681,-444.123565,-1225.752797
372.928594,-9770.718434,296.082377,-1149.143247
372.928909,-10288.862594,888.247130,0.000000
372.929225,-10658.965565,1184.329507,306.438199
372.929541,-10955.047942,1332.370696,2604.724693
372.929856,-10658.965565,1036.288319,995.924147
372.930172,-10584.944971,740.205942,766.095498
372.930487,-10362.883188,148.041188,842.705048
372.930803,-9844.739029,0.000000,76.609550
372.931119,-9030.512492,-1702.473667,842.705048
372.931434,-9030.512492,-962.267725,-766.095498
372.931750,-9030.512492,-1258.350101,-766.095498
372.932065,-9030.512492,-1702.473667,-1072.533697
372.932381,-8808.450710,-1406.391290,-1608.800546
372.932696,-8882.471304,-962.267725,-1072.533697
372.933012,-9326.594869,-962.267725,-919.314598
372.933328,-9474.636058,-518.144159,-306.438199
372.933643,-9622.677246,-370.102971,153.219100
372.933959,-10140.821405,1332.370696,1455.581446
372.934274,-10214.842000,0.000000,919.314598
372.934590,-9992.780217,-148.041188,1072.533697
372.934906,-9770.718434,222.061783,1072.533697
372.935221,-9918.759623,148.041188,919.314598
372.935537,-9548.656652,-962.267725,842.705048
372.935852,-9770.718434,-740.205942,0.000000
372.936168,-9326.594869,-962.267725,-229.828649
372.936483,-9252.574275,-888.247130,-383.047749
372.936799,-9474.636058,-370.102971,-459.657299
372.937115,-9252.574275,-962.267725,-612.876398
372.937430,-9178.553681,74.020594,229.828649
372.937746,-9622.677246,814.226536,306.438199
372.938061,-10140.821405,-518.144159,612.876398
372.938377,-10140.821405,1628.453072,0.000000
372.938693,-9548.656652,74.020594,459.657299
372.939008,-9770.718434,0.000000,383.047749
372.939324,-8808.450710,518.144159,-153.219100
372.939639,-9474.636058,-1332.370696,-766.095498
372.939955,-8216.285956,666.185348,-995.924147
372.940271,-8438.347739,-1776.494261,-1608.800546
372.940586,-9326.594869,-1406.391290,-1532.190996
372.940902,-8290.306550,-1554.432478,-1762.019645
372.941217,-9104.533087,-962.267725,-1455.581446
372.941533,-8512.368333,-740.205942,-1532.190996
372.941848,-9918.759623,-444.123565,-995.924147
372.942164,-9548.656652,-592.164754,-689.485948
372.942479,-9696.697840,370.102971,0.000000
372.942795,-10436.903782,666.185348,-459.657299
372.943111,-10066.800811,518.144159,229.828649
372.943426,-10214.842000,74.020594,0.000000
372.943742,-9400.615463,666.185348,76.609550
372.944057,-9622.677246,0.000000,-306.438199
372.944373,-8808.450710,-370.102971,0.000000
372.944688,-8808.450710,-740.205942,-995.924147
372.945004,-9104.533087,-370.102971,-1685.410096
372.945319,-8290.306550,-1184.329507,-1608.800546
372.945635,-9326.594869,-740.205942,-1838.629195
372.945951,-7698.141797,-740.205942,-1225.752797
372.946266,-9622.677246,-740.205942,-1915.238745
372.946582,-8734.430116,0.000000,-1302.362347
372.946897,-10288.862594,-1036.288319,-1225.752797
372.947213,-9400.615463,74.020594,-459.657299
372.947528,-10214.842000,0.000000,0.000000
372.947844,-10288.862594,370.102971,536.266849
372.948159,-10214.842000,444.123565,459.657299
372.948475,-10362.883188,296.082377,842.705048
372.948790,-10362.883188,740.205942,459.657299
372.949106,-9548.656652,370.102971,153.219100
372.949422,-10584.944971,-148.041188,766.095498
372.949737,-9696.697840,-222.061783,0.000000
372.950053,-9696.697840,-222.061783,0.000000
372.950368,-10807.006753,-222.061783,536.266849
372.950684,-9252.574275,-1184.329507,-306.438199
372.950999,-9400.615463,-148.041188,0.000000
372.951315,-9622.677246,-962.267725,0.000000
372.951630,-8660.409521,-1554.432478,-612.876398
372.951946,-9326.594869,-370.102971,0.000000
372.952261,-9696.697840,-1036.288319,0.000000
372.952577,-9326.594869,-740.205942,0.000000
372.952893,-9326.594869,-518.144159,-766.095498
372.953208,-8660.409521,-740.205942,-229.828649
372.953524,-9548.656652,0.000000,153.219100
372.953839,-9918.759623,-962.267725,-383.047749
372.954155,-9474.636058,814.226536,306.438199
372.954470,-9622.677246,444.123565,1302.362347
372.954786,-10510.924376,-148.041188,689.485948
372.955101,-9770.718434,-518.144159,306.438199
372.955417,-9326.594869,370.102971,383.047749
372.955732,-9548.656652,444.123565,995.924147
372.956048,-9474.636058,-666.185348,919.314598
372.956364,-9252.574275,-1998.556043,-383.047749
372.956679,-8142.265362,-296.082377,-919.314598
372.956995,-8586.388927,444.123565,-536.266849
372.957310,-9992.780217,-666.185348,0.000000
372.957626,-8142.265362,74.020594,-1149.143247
372.957941,-8142.265362,-2072.576638,-1915.238745
372.958257,-8142.265362,-740.205942,-2298.286494
372.958572,-9400.615463,814.226536,-919.314598
372.958888,-10066.800811,222.061783,153.219100
372.959203,-8956.491898,-1406.391290,-1149.143247
372.959519,-8586.388927,-740.205942,-1302.362347
372.959835,-10140.821405,-222.061783,-766.095498
372.960150,-9992.780217,-592.164754,-612.876398
372.960466,-9178.553681,962.267725,0.000000
372.960781,-8808.450710,888.247130,0.000000
372.961097,-10584.944971,296.082377,459.657299
372.961412,-10732.986159,-370.102971,383.047749
372.961728,-9770.718434,-518.144159,306.438199
372.962043,-8438.347739,-1332.370696,0.000000
372.962359,-9548.656652,-888.247130,-1225.752797
372.962675,-9474.636058,-222.061783,-1378.971896
372.962990,-8438.347739,-666.185348,-2068.457845
372.963306,-7846.182985,-1110.308913,-2604.724693
372.963621,-8068.244768,296.082377,-1762.019645
372.963937,-10214.842000,592.164754,153.219100
372.964252,-11029.068536,666.185348,1302.362347
372.964568,-9918.759623,-296.082377,1302.362347
372.964883,-11103.089130,296.082377,919.314598
372.965199,-9622.677246,814.226536,1149.143247
372.965514,-10214.842000,296.082377,995.924147
372.965830,-9548.656652,0.000000,536.266849
372.966146,-8956.491898,-1776.494261,-459.657299
372.966461,-9622.677246,-1258.350101,-1302.362347
372.966777,-9474.636058,-1554.432478,-1455.581446
372.967092,-8956.491898,0.000000,-1225.752797
372.967408,-9178.553681,-444.123565,-536.266849
372.967723,-9918.759623,-814.226536,-766.095498
372.968039,-9770.718434,0.000000,459.657299
372.968354,-10658.965565,222.061783,995.924147
372.968670,-9696.697840,222.061783,1378.971896
372.968985,-10658.965565,592.164754,1685.410096
372.969301,-10510.924376,74.020594,1455.581446
372.969617,-10140.821405,592.164754,1302.362347
372.969932,-9326.594869,0.000000,536.266849
372.970248,-9326.594869,-370.102971,0.000000
372.970563,-8660.409521,-962.267725,-919.314598
372.970879,-9622.677246,-1036.288319,-2451.505594
372.971194,-8364.327145,-370.102971,-1838.629195
372.971510,-8734.430116,-962.267725,-1302.362347
372.971825,-9400.615463,-518.144159,-1149.143247
372.972141,-9474.636058,-444.123565,-383.047749
372.972456,-9992.780217,0.000000,919.314598
372.972772,-9992.780217,0.000000,612.876398
372.973088,-10732.986159,74.020594,1455.581446
372.973403,-10140.821405,-222.061783,1455.581446
372.973719,-9178.553681,-1480.411884,1302.362347
372.974034,-8586.388927,-888.247130,-1455.581446
372.974350,-8660.409521,148.041188,-1915.238745
372.974665,-8734.430116,0.000000,-1762.019645
372.974981,-8956.491898,-222.061783,-1991.848295
372.975296,-8586.388927,-814.226536,-2068.457845
372.975612,-9474.636058,-1332.370696,-919.314598
372.975927,-9696.697840,-592.164754,-995.924147
372.976243,-9918.759623,0.000000,-766.095498
372.976559,-9548.656652,1628.453072,1685.410096
372.976874,-9400.615463,444.123565,919.314598
372.977190,-10658.965565,-592.164754,919.314598
372.977505,-9474.636058,-740.205942,383.047749
372.977821,-8882.471304,-962.267725,-766.095498
372.978136,-8068.244768,-1110.308913,-1378.971896
372.978452,-9178.553681,-518.144159,-1225.752797
372.978767,-8364.327145,-1924.535449,-2145.067394
372.979083,-7402.059420,-1776.494261,-3217.601092
372.979399,-8364.327145,-1258.350101,-2757.943793
372.979714,-9252.574275,-1036.288319,-536.266849
372.980030,-9992.780217,-1702.473667,-842.705048
372.980345,-9474.636058,-666.185348,-1455.581446
372.980661,-9030.512492,1184.329507,0.000000
372.980976,-10955.047942,1998.556043,0.000000
372.981292,-10732.986159,148.041188,1915.238745
372.981607,-9992.780217,0.000000,1225.752797
372.981923,-9548.656652,814.226536,995.924147
372.982238,-10955.047942,-148.041188,766.095498
372.982554,-10362.883188,0.000000,-919.314598
372.982870,-8808.450710,-296.082377,-612.876398
372.983185,-8438.347739,-1184.329507,-1302.362347
372.983501,-9474.636058,-1036.288319,-2145.067394
372.983816,-9622.677246,-1036.288319,-1685.410096
372.984132,-8512.368333,-1258.350101,-1378.971896
372.984447,-8142.265362,-1258.350101,-2221.676944
372.984763,-9770.718434,-444.123565,-1149.143247
372.985078,-10658.965565,296.082377,229.828649
372.985394,-9918.759623,518.144159,1302.362347
372.985709,-9696.697840,518.144159,766.095498
372.986025,-10732.986159,370.102971,919.314598
372.986341,-10658.965565,592.164754,1685.410096
372.986656,-10955.047942,148.041188,1685.410096
372.986972,-10066.800811,444.123565,1149.143247
372.987287,-9104.533087,-444.123565,153.219100
372.987603,-10510.924376,-518.144159,0.000000
372.987918,-9326.594869,-444.123565,-536.266849
372.988234,-9104.533087,-888.247130,-919.314598
372.988549,-8808.450710,-666.185348,-1378.971896
372.988865,-9474.636058,-1554.432478,-1225.752797
372.989180,-9400.615463,0.000000,-766.095498
372.989496,-8882.471304,-148.041188,-383.047749
372.989812,-9696.697840,0.000000,0.000000
372.990127,-9252.574275,0.000000,0.000000
372.990443,-9992.780217,0.000000,536.266849
372.990758,-9548.656652,666.185348,766.095498
372.991074,-9400.615463,-814.226536,0.000000
372.991389,-9326.594869,296.082377,153.219100
372.991705,-9326.594869,-1036.288319,0.000000
372.992020,-9696.697840,0.000000,-459.657299
372.992336,-8734.430116,-814.226536,-536.266849
372.992652,-9030.512492,-444.123565,-766.095498
372.992967,-8882.471304,-962.267725,-459.657299
372.993283,-9474.636058,-222.061783,-1072.533697
372.993598,-8586.388927,-888.247130,-995.924147
372.993914,-9474.636058,-296.082377,-995.924147
372.994229,-9474.636058,-666.185348,229.828649
372.994545,-9770.718434,-592.164754,-306.438199
372.994860,-8808.450710,0.000000,0.000000
372.995176,-9918.759623,-592.164754,-306.438199
372.995491,-9178.553681,444.123565,153.219100
372.995807,-9696.697840,-740.205942,0.000000
372.996123,-9030.512492,296.082377,-229.828649
372.996438,-8956.491898,-888.247130,-995.924147
372.996754,-9474.636058,-296.082377,-842.705048
372.997069,-9252.574275,-444.123565,-919.314598
372.997385,-9770.718434,0.000000,-1302.362347
372.997700,-9400.615463,148.041188,-766.095498
372.998016,-9474.636058,-740.205942,-766.095498
372.998331,-9918.759623,-222.061783,-842.705048
372.998647,-9178.553681,148.041188,-842.705048
372.998962,-10362.883188,-518.144159,-536.266849
372.999278,-9474.636058,592.164754,-153.219100
372.999594,-10214.842000,-740.205942,-383.047749
372.999909,-9548.656652,0.000000,0.000000
373.000225,-9326.594869,-592.164754,842.705048
373.000540,-10288.862594,-1110.308913,-306.438199
373.000856,-9030.512492,0.000000,-229.828649
373.001171,-10140.821405,-444.123565,-689.485948
373.001487,-8956.491898,-518.144159,-1149.143247
373.001802,-8956.491898,-148.041188,-842.705048
373.002118,-10066.800811,-222.061783,-919.314598
373.002433,-9474.636058,-222.061783,-766.095498
373.002749,-9696.697840,222.061783,-689.485948
373.003065,-10214.842000,-518.144159,-153.219100
373.003380,-9622.677246,666.185348,-153.219100
373.003696,-9844.739029,518.144159,153.219100
373.004011,-10140.821405,0.000000,0.000000
373.004327,-9770.718434,296.082377,229.828649
373.004642,-9474.636058,-814.226536,-842.705048
373.004958,-9622.677246,-518.144159,0.000000
373.005273,-9252.574275,-444.123565,-229.828649
373.005589,-9474.636058,-592.164754,0.000000
373.005904,-9770.718434,-814.226536,0.000000
373.006220,-9030.512492,-1110.308913,-229.828649
373.006536,-9252.574275,-592.164754,-689.485948
373.006851,-9474.636058,-518.144159,-383.047749
373.007167,-9844.739029,-296.082377,76.609550
373.007482,-8734.430116,222.061783,0.000000
373.007798,-9326.594869,222.061783,459.657299
373.008113,-9474.636058,296.082377,459.657299
373.008429,-10214.842000,296.082377,842.705048
373.008744,-9548.656652,0.000000,1072.533697
373.009060,-10140.821405,74.020594,1072.533697
373.009376,-9326.594869,-1036.288319,0.000000
373.009691,-9104.533087,-1184.329507,-153.219100
373.010007,-9030.512492,-1406.391290,-612.876398
373.010322,-8512.368333,-1702.473667,-306.438199
373.010638,-8512.368333,-1258.350101,-842.705048
373.010953,-8956.491898,-1184.329507,-689.485948
373.011269,-9400.615463,-888.247130,-153.219100
373.011584,-9252.574275,-518.144159,0.000000
373.011900,-9992.780217,296.082377,1378.971896
373.012215,-9622.677246,518.144159,766.095498
373.012531,-10362.883188,740.205942,995.924147
373.012847,-9992.780217,888.247130,1149.143247
373.013162,-9770.718434,148.041188,995.924147
373.013478,-8882.471304,0.000000,842.705048
373.013793,-9030.512492,-444.123565,-383.047749
373.014109,-8882.471304,-370.102971,-766.095498
373.014424,-8438.347739,-1184.329507,-1532.190996
373.014740,-8660.409521,-1702.473667,-2145.067394
373.015055,-8216.285956,-2368.659014,-1685.410096
373.015371,-8512.368333,-2146.597232,-2374.896044
373.015686,-8438.347739,-1184.329507,-1991.848295
373.016002,-9104.533087,-592.164754,-1532.190996
373.016318,-8956.491898,-296.082377,-1532.190996
373.016633,-9992.780217,0.000000,0.000000
373.016949,-10436.903782,814.226536,612.876398
373.017264,-10807.006753,1332.370696,995.924147
373.017580,-11251.130318,1554.432478,1685.410096
373.017895,-11251.130318,1628.453072,2145.067394
373.018211,-10510.924376,1554.432478,1532.190996
373.018526,-10140.821405,1184.329507,1072.533697
373.018842,-10214.842000,666.185348,842.705048
373.019157,-9696.697840,-222.061783,459.657299
373.019473,-8956.491898,-1184.329507,-459.657299
373.019789,-8808.450710,-1480.411884,-383.047749
373.020104,-8734.430116,-1258.350101,-919.314598
373.020420,-8660.409521,-1184.329507,-842.705048
373.020735,-9104.533087,-1480.411884,-536.266849
373.021051,-9030.512492,-1184.329507,-383.047749
373.021366,-9474.636058,-666.185348,76.609550
373.021682,-9918.759623,-592.164754,306.438199
373.021997,-9992.780217,-222.061783,1302.362347
373.022313,-10214.842000,0.000000,2221.676944
373.022628,-9992.780217,222.061783,2145.067394
373.022944,-10732.986159,370.102971,2221.676944
373.023260,-10436.903782,148.041188,2528.115143
373.023575,-10362.883188,518.144159,3064.381992
373.023891,-9918.759623,-296.082377,1838.629195
373.024206,-9992.780217,-370.102971,1838.629195
373.024522,-9918.759623,0.000000,1225.752797
373.024837,-9548.656652,-666.185348,1455.581446
373.025153,-8808.450710,-962.267725,-1072.533697
373.025468,-8882.471304,-1258.350101,383.047749
373.025784,-9030.512492,-1406.391290,229.828649
373.026100,-9030.512492,-1406.391290,0.000000
373.026415,-8734.430116,-888.247130,0.000000
373.026731,-8660.409521,0.000000,-383.047749
373.027046,-8734.430116,-222.061783,0.000000
373.027362,-9178.553681,-296.082377,0.000000
373.027677,-9178.553681,-592.164754,-153.219100
373.027993,-9474.636058,-1184.329507,-689.485948
373.028308,-8956.491898,0.000000,-766.095498
373.028624,-9400.615463,222.061783,229.828649
373.028939,-9844.739029,444.123565,612.876398
373.029255,-9474.636058,-296.082377,766.095498
373.029571,-9844.739029,-296.082377,-842.705048
373.029886,-9770.718434,-148.041188,612.876398
373.030202,-9844.739029,0.000000,1149.143247
373.030517,-9622.677246,296.082377,766.095498
373.030833,-9474.636058,-666.185348,383.047749
373.031148,-8882.471304,-222.061783,153.219100
373.031464,-9252.574275,-222.061783,-153.219100
373.031779,-9326.594869,-1184.329507,-536.266849
373.032095,-8660.409521,0.000000,-612.876398
373.032410,-8956.491898,-518.144159,-842.705048
373.032726,-9178.553681,-1110.308913,-459.657299
373.033042,-8808.450710,74.020594,-459.657299
373.033357,-9252.574275,-1554.432478,-536.266849
373.033673,-9178.553681,0.000000,-383.047749
373.033988,-9474.636058,-518.144159,0.000000
373.034304,-10288.862594,-370.102971,76.609550
373.034619,-9474.636058,74.020594,536.266849
373.034935,-10436.903782,-518.144159,689.485948
373.035250,-9696.697840,370.102971,1072.533697
373.035566,-10732.986159,-370.102971,842.705048
373.035881,-10436.903782,-148.041188,1378.971896
373.036197,-9918.759623,0.000000,1608.800546
373.036513,-10288.862594,0.000000,1455.581446
373.036828,-9770.718434,-370.102971,1378.971896
373.037144,-10140.821405,-444.123565,919.314598
373.037459,-9252.574275,-296.082377,766.095498
373.037775,-10066.800811,-222.061783,536.266849
373.038090,-9326.594869,-370.102971,612.876398
373.038406,-8364.327145,-1702.473667,-76.609550
373.038721,-9104.533087,-296.082377,0.000000
373.039037,-9030.512492,-1258.350101,76.609550
373.039353,-9474.636058,0.000000,229.828649
373.039668,-9474.636058,-1184.329507,536.266849
373.039984,-9474.636058,-740.205942,1302.362347
373.040299,-9030.512492,-370.102971,1072.533697
373.040615,-10584.944971,74.020594,1225.752797
373.040930,-9548.656652,592.164754,1532.190996
373.041246,-10807.006753,0.000000,3294.210641
373.041561,-9696.697840,518.144159,2221.676944
373.041877,-10140.821405,0.000000,1762.019645
373.042192,-10066.800811,-148.041188,1685.410096
373.042508,-9326.594869,-370.102971,995.924147
373.042824,-8586.388927,-962.267725,1762.019645
373.043139,-9400.615463,-962.267725,536.266849
373.043455,-8586.388927,-518.144159,0.000000
373.043770,-9400.615463,-1110.308913,0.000000
373.044086,-8586.388927,-1332.370696,-536.266849
373.044402,-7920.203579,-592.164754,-76.609550
373.044717,-9474.636058,-814.226536,0.000000
373.045033,-8512.368333,-1480.411884,-612.876398
373.045348,-8734.430116,0.000000,-459.657299
373.045664,-9474.636058,-148.041188,536.266849
373.045980,-9474.636058,-518.144159,76.609550
373.046295,-9104.533087,0.000000,229.828649
373.046611,-9918.759623,592.164754,689.485948
373.046926,-9696.697840,-222.061783,919.314598
373.047242,-9474.636058,74.020594,383.047749
373.047558,-9770.718434,444.123565,766.095498
373.047873,-9696.697840,370.102971,1378.971896
373.048189,-9622.677246,-962.267725,459.657299
373.048504,-9696.697840,-962.267725,0.000000
373.048820,-8512.368333,592.164754,229.828649
373.049136,-9400.615463,0.000000,306.438199
373.049451,-9474.636058,-1554.432478,0.000000
373.049767,-8660.409521,-1332.370696,-1149.143247
373.050082,-8068.244768,-148.041188,-1072.533697
373.050398,-9104.533087,814.226536,76.609550
373.050714,-10066.800811,-740.205942,0.000000
373.051029,-9178.553681,-1406.391290,-383.047749
373.051345,-8216.285956,0.000000,-1072.533697
373.051660,-9622.677246,740.205942,919.314598
373.051976,-10436.903782,1036.288319,1072.533697
373.052292,-10436.903782,222.061783,1378.971896
373.052607,-9548.656652,-1332.370696,689.485948
373.052923,-9474.636058,-740.205942,0.000000
373.053238,-9770.718434,74.020594,689.485948
373.053554,-10881.027347,222.061783,1302.362347
373.053870,-9030.512492,296.082377,995.924147
373.054185,-9770.718434,0.000000,766.095498
373.054501,-10436.903782,-148.041188,1302.362347
373.054816,-11177.109724,-1332.370696,1378.971896
373.055132,-9030.512492,-1332.370696,383.047749
373.055448,-8364.327145,-814.226536,-459.657299
373.055763,-9548.656652,222.061783,-383.047749
373.056079,-8290.306550,296.082377,306.438199
373.056394,-9252.574275,0.000000,153.219100
373.056710,-8882.471304,-962.267725,153.219100
373.057026,-9844.739029,-592.164754,689.485948
373.057341,-10658.965565,444.123565,2145.067394
373.057657,-10140.821405,740.205942,2145.067394
373.057972,-9400.615463,370.102971,1838.629195
373.058288,-9622.677246,-370.102971,1838.629195
373.058604,-10066.800811,-444.123565,1302.362347
373.058919,-10066.800811,-1998.556043,612.876398
373.059235,-8290.306550,-2442.679609,-1225.752797
373.059550,-7698.141797,-1184.329507,-2068.457845
373.059866,-9178.553681,0.000000,-1302.362347
373.060182,-9474.636058,0.000000,-612.876398
373.060497,-9104.533087,-444.123565,-1072.533697
373.060813,-9474.636058,-444.123565,-459.657299
373.061128,-10214.842000,148.041188,766.095498
373.061444,-11399.171507,1036.288319,2068.457845
373.061760,-10436.903782,2072.576638,2757.943793
373.062075,-10288.862594,1702.473667,2298.286494
373.062391,-10140.821405,2072.576638,2834.553343
373.062706,-10955.047942,888.247130,3294.210641
373.063022,-10362.883188,-370.102971,2757.943793
373.063338,-8290.306550,-1628.453072,383.047749
373.063653,-7772.162391,-1924.535449,-1915.238745
373.063969,-7402.059420,-1924.535449,-2145.067394
373.064284,-7254.018232,-2812.782580,-3753.867940
373.064600,-6291.750507,-3256.906145,-4596.572988
373.064916,-6365.771101,-3404.947333,-5515.887586
373.065231,-8290.306550,-2368.659014,-3447.429741
373.065547,-9548.656652,-1036.288319,-1225.752797
373.065862,-9474.636058,-148.041188,0.000000
373.066178,-9844.739029,1184.329507,1532.190996
373.066494,-11843.295072,2960.823768,4596.572988
373.066809,-13249.686362,2442.679609,6205.373534
373.067125,-12139.377449,2368.659014,5898.935335
373.067440,-11177.109724,1332.370696,4290.134789
373.067756,-10732.986159,962.267725,3064.381992
373.068072,-10436.903782,518.144159,766.095498
373.068387,-8438.347739,-888.247130,-842.705048
373.068703,-6809.894666,-1332.370696,-2987.772442
373.069019,-7402.059420,-2516.700203,-3370.820191
373.069334,-7698.141797,-2664.741391,-2374.896044
373.069650,-7920.203579,-3330.926739,-3524.039291
373.069965,-7402.059420,-2516.700203,-3447.429741
373.070281,-7624.121203,-518.144159,-2374.896044
373.070597,-10214.842000,148.041188,536.266849
373.070912,-11177.109724,740.205942,5286.058936
373.071228,-10436.903782,-148.041188,3140.991542
373.071543,-10807.006753,74.020594,2604.724693
373.071859,-11399.171507,2146.597232,4060.306139
373.072175,-12435.459826,1850.514855,4596.572988
373.072490,-11621.233289,1480.411884,2604.724693
373.072806,-9622.677246,-666.185348,919.314598
373.073121,-9474.636058,666.185348,-153.219100
373.073437,-9844.739029,148.041188,229.828649
373.073753,-9918.759623,-1480.411884,0.000000
373.074068,-7846.182985,-2220.617826,-2145.067394
373.074384,-8216.285956,-518.144159,-2068.457845
373.074699,-9474.636058,-444.123565,-306.438199
373.075015,-10066.800811,-962.267725,459.657299
373.075331,-7994.224174,0.000000,1225.752797
373.075646,-9252.574275,-296.082377,1225.752797
373.075962,-10658.965565,370.102971,2145.067394
373.076277,-10807.006753,296.082377,2145.067394
373.076593,-9474.636058,740.205942,1762.019645
373.076909,-9178.553681,-296.082377,1072.533697
373.077224,-9474.636058,-592.164754,306.438199
373.077540,-10362.883188,-444.123565,689.485948
373.077855,-9400.615463,-1332.370696,0.000000
373.078171,-7698.141797,-444.123565,689.485948
373.078487,-8660.409521,-1184.329507,-1072.533697
373.078802,-10140.821405,-1480.411884,-383.047749
373.079118,-8660.409521,-296.082377,229.828649
373.079433,-9474.636058,-740.205942,383.047749
373.079749,-9474.636058,-666.185348,995.924147
373.080065,-10362.883188,666.185348,1991.848295
373.080380,-10881.027347,740.205942,2528.115143
373.080696,-9474.636058,888.247130,2145.067394
373.081011,-9474.636058,0.000000,1302.362347
373.081327,-10436.903782,518.144159,306.438199
373.081643,-9252.574275,0.000000,536.266849
373.081958,-8512.368333,-370.102971,-383.047749
373.082274,-7920.203579,-1332.370696,-1302.362347
373.082589,-8882.471304,-2146.597232,-1838.629195
373.082905,-7328.038826,-592.164754,-1838.629195
373.083221,-8290.306550,-1480.411884,-1455.581446
373.083536,-8660.409521,-740.205942,-1072.533697
373.083852,-8882.471304,-1628.453072,-536.266849
373.084167,-9918.759623,740.205942,1072.533697
373.084483,-9474.636058,0.000000,1302.362347
373.084799,-10584.944971,222.061783,1762.019645
373.085114,-9992.780217,444.123565,2221.676944
373.085430,-10584.944971,296.082377,1838.629195
373.085745,-9918.759623,888.247130,2145.067394
373.086061,-10140.821405,222.061783,1302.362347
373.086377,-9252.574275,-592.164754,459.657299
373.086692,-9548.656652,-740.205942,0.000000
373.087008,-8882.471304,-962.267725,-229.828649
373.087323,-8808.450710,-444.123565,-459.657299
373.087639,-8438.347739,-1184.329507,-995.924147
373.087955,-9474.636058,-666.185348,-689.485948
373.088270,-8808.450710,-592.164754,0.000000
373.088586,-9770.718434,-370.102971,153.219100
373.088901,-9326.594869,296.082377,459.657299
373.089217,-10362.883188,-666.185348,1149.143247
373.089533,-10214.842000,740.205942,1455.581446
373.089848,-10140.821405,-296.082377,1608.800546
373.090164,-10214.842000,444.123565,919.314598
373.090479,-9474.636058,-148.041188,1072.533697
373.090795,-10658.965565,-296.082377,1225.752797
373.091111,-9474.636058,0.000000,766.095498
373.091426,-9844.739029,-888.247130,383.047749
373.091742,-9326.594869,0.000000,-919.314598
373.092057,-9918.759623,-444.123565,459.657299
373.092373,-9918.759623,-592.164754,612.876398
373.092689,-9178.553681,0.000000,536.266849
373.093004,-10140.821405,-814.226536,459.657299
373.093320,-9400.615463,0.000000,1685.410096
373.093635,-9992.780217,0.000000,1225.752797
373.093951,-9548.656652,-592.164754,1532.190996
373.094267,-9400.615463,74.020594,1149.143247
373.094582,-10436.903782,-296.082377,612.876398
373.094898,-9178.553681,-592.164754,1225.752797
373.095213,-9104.533087,-518.144159,612.876398
373.095529,-9252.574275,-1110.308913,229.828649
373.095845,-8882.471304,-592.164754,-306.438199
373.096160,-9474.636058,-370.102971,306.438199
373.096476,-9326.594869,-1184.329507,0.000000
373.096791,-8956.491898,-666.185348,0.000000
373.097107,-9474.636058,-962.267725,0.000000
373.097423,-8956.491898,-1184.329507,-383.047749
373.097738,-9474.636058,0.000000,459.657299
373.098054,-9548.656652,-518.144159,536.266849
373.098369,-9548.656652,-222.061783,306.438199
373.098685,-9474.636058,0.000000,536.266849
373.099001,-10362.883188,740.205942,1149.143247
373.099316,-9548.656652,0.000000,612.876398
373.099632,-9844.739029,0.000000,306.438199
373.099947,-9400.615463,148.041188,153.219100
373.100263,-9252.574275,296.082377,0.000000
373.100579,-9104.533087,0.000000,0.000000
373.100894,-9178.553681,-592.164754,-842.705048
373.101210,-9030.512492,-518.144159,-1072.533697
373.101525,-8882.471304,-592.164754,-1302.362347
373.101841,-9178.553681,-148.041188,-1378.971896
373.102157,-8956.491898,-444.123565,-766.095498
373.102472,-8956.491898,-370.102971,-842.705048
373.102788,-9252.574275,-370.102971,-459.657299
373.103103,-9474.636058,-296.082377,0.000000
373.103419,-9252.574275,-1628.453072,1991.848295
373.103735,-9622.677246,0.000000,383.047749
373.104050,-9918.759623,0.000000,459.657299
373.104366,-9918.759623,666.185348,1225.752797
373.104681,-10066.800811,444.123565,1225.752797
373.104997,-10140.821405,296.082377,842.705048
373.105313,-9844.739029,0.000000,919.314598
373.105628,-9992.780217,-222.061783,1302.362347
373.105944,-9696.697840,-148.041188,995.924147
373.106259,-9474.636058,-518.144159,1225.752797
373.106575,-9030.512492,-444.123565,229.828649
373.106891,-9326.594869,-518.144159,536.266849
373.107206,-9548.656652,-518.144159,689.485948
373.107522,-9696.697840,-1480.411884,383.047749
373.107837,-10066.800811,-2368.659014,0.000000
373.108153,-9104.533087,-1332.370696,0.000000
373.108469,-9474.636058,-666.185348,0.000000
373.108784,-9474.636058,-592.164754,536.266849
373.109100,-9326.594869,-370.102971,306.438199
373.109415,-9252.574275,-1480.411884,76.609550
373.109731,-9474.636058,-1258.350101,-306.438199
373.110047,-9696.697840,-666.185348,-229.828649
373.110362,-9770.718434,-370.102971,0.000000
373.110678,-9696.697840,-962.267725,-612.876398
373.110994,-9770.718434,0.000000,0.000000
373.111309,-10362.883188,222.061783,459.657299
373.111625,-10436.903782,888.247130,766.095498
373.111940,-10140.821405,740.205942,995.924147
373.112256,-10066.800811,518.144159,1225.752797
373.112572,-10066.800811,888.247130,383.047749
373.112887,-9992.780217,1110.308913,229.828649
373.113203,-9474.636058,518.144159,-306.438199
373.113518,-9030.512492,-518.144159,-1378.971896
373.113834,-8142.265362,-1332.370696,-1915.238745
373.114150,-8808.450710,-962.267725,-2604.724693
373.114465,-8364.327145,-1036.288319,-2757.943793
373.114781,-8364.327145,-1628.453072,-2987.772442
373.115096,-8290.306550,-1258.350101,-2604.724693
373.115412,-8808.450710,-814.226536,-2757.943793
373.115728,-9252.574275,-592.164754,-1991.848295
373.116043,-9770.718434,-444.123565,-1302.362347
373.116359,-9770.718434,0.000000,-536.266849
373.116674,-10658.965565,0.000000,76.609550
373.116990,-10510.924376,1110.308913,1149.143247
373.117306,-10807.006753,1110.308913,1149.143247
373.117621,-10436.903782,518.144159,1149.143247
373.117937,-9918.759623,444.123565,536.266849
373.118252,-9992.780217,296.082377,0.000000
373.118568,-9252.574275,-148.041188,76.609550
373.118884,-8882.471304,-1184.329507,-766.095498
373.119199,-8290.306550,-1480.411884,-1532.190996
373.119515,-8364.327145,-1702.473667,-1991.848295
373.119830,-8216.285956,-2072.576638,-2145.067394
373.120146,-8364.327145,-1554.432478,-1915.238745
373.120462,-8290.306550,-1554.432478,-1685.410096
373.120777,-8660.409521,-1258.350101,-1225.752797
373.121093,-9548.656652,-666.185348,-689.485948
373.121408,-9770.718434,-222.061783,306.438199
373.121724,-10066.800811,-222.061783,536.266849
373.122040,-10140.821405,0.000000,612.876398
373.122355,-10066.800811,370.102971,1149.143247
373.122671,-10955.047942,1110.308913,1532.190996
373.122986,-10510.924376,518.144159,1685.410096
373.123302,-9992.780217,-444.123565,995.924147
373.123618,-9770.718434,74.020594,842.705048
373.123933,-10288.862594,740.205942,0.000000
373.124249,-9400.615463,-370.102971,76.609550
373.124564,-9252.574275,0.000000,0.000000
373.124880,-9474.636058,-1184.329507,-306.438199
373.125196,-9030.512492,74.020594,-153.219100
373.125511,-8956.491898,0.000000,842.705048
373.125827,-9696.697840,-814.226536,76.609550
373.126142,-8956.491898,222.061783,-306.438199
373.126458,-9770.718434,-1258.350101,-842.705048
373.126774,-9178.553681,222.061783,689.485948
373.127089,-8808.450710,-1184.329507,-612.876398
373.127405,-9474.636058,-370.102971,-842.705048
373.127720,-9104.533087,-444.123565,-689.485948
373.128036,-10066.800811,-296.082377,-689.485948
373.128352,-9622.677246,-962.267725,1225.752797
373.128667,-9992.780217,370.102971,-229.828649
373.128983,-9696.697840,-518.144159,-306.438199
373.129298,-10140.821405,296.082377,0.000000
373.129614,-9992.780217,-370.102971,-612.876398
373.129930,-9992.780217,814.226536,-842.705048
373.130245,-9696.697840,-518.144159,-306.438199
373.130561,-9770.718434,0.000000,-766.095498
373.130876,-9326.594869,-444.123565,-612.876398
373.131192,-9548.656652,0.000000,-1225.752797
373.131508,-8586.388927,0.000000,-995.924147
373.131823,-9844.739029,0.000000,-1378.971896
373.132139,-8438.347739,0.000000,-1302.362347
373.132454,-9474.636058,-592.164754,-1302.362347
373.132770,-8586.388927,222.061783,-1302.362347
373.133086,-9400.615463,-740.205942,-1302.362347
373.133401,-9178.553681,222.061783,-1225.752797
373.133717,-8956.491898,-740.205942,-1225.752797
373.134032,-9474.636058,-296.082377,-1072.533697
373.134348,-9104.533087,-518.144159,-766.095498
373.134664,-9696.697840,-740.205942,-689.485948
373.134979,-9548.656652,-666.185348,-459.657299
373.135295,-9252.574275,-444.123565,-459.657299
373.135610,-10584.944971,0.000000,919.314598
373.135926,-9622.677246,-814.226536,229.828649
373.136242,-9622.677246,0.000000,459.657299
373.136557,-10214.842000,0.000000,536.266849
373.136873,-9622.677246,-518.144159,0.000000
373.137188,-10066.800811,814.226536,612.876398
373.137504,-9622.677246,-148.041188,459.657299
373.137820,-9400.615463,-592.164754,0.000000
373.138135,-9030.512492,296.082377,-306.438199
373.138451,-9622.677246,-666.185348,76.609550
373.138766,-8956.491898,-962.267725,76.609550
373.139082,-8660.409521,-1110.308913,-1149.143247
373.139398,-9030.512492,-222.061783,-383.047749
373.139713,-9326.594869,-518.144159,76.609550
373.140029,-9326.594869,-2516.700203,-1302.362347
373.140344,-8808.450710,-592.164754,-536.266849
373.140660,-9178.553681,-148.041188,153.219100
373.140976,-10288.862594,-592.164754,459.657299
373.141291,-10066.800811,-962.267725,229.828649
373.141607,-7846.182985,518.144159,-153.219100
373.141922,-9474.636058,1258.350101,919.314598
373.142238,-11177.109724,518.144159,1455.581446
373.142554,-10584.944971,-962.267725,842.705048
373.142869,-9400.615463,74.020594,0.000000
373.143185,-8882.471304,1184.329507,-229.828649
373.143500,-10436.903782,592.164754,1072.533697
373.143816,-10510.924376,74.020594,919.314598
373.144132,-8808.450710,-1850.514855,-153.219100
373.144447,-9030.512492,-1628.453072,-1378.971896
373.144763,-8882.471304,-222.061783,-1225.752797
373.145078,-9622.677246,296.082377,-536.266849
373.145394,-9178.553681,-740.205942,-306.438199
373.145709,-8438.347739,-1480.411884,-1378.971896
373.146025,-9178.553681,-1554.432478,-1302.362347
373.146341,-9992.780217,-1036.288319,-766.095498
373.146656,-9474.636058,-962.267725,-766.095498
373.146972,-8586.388927,-666.185348,-1532.190996
373.147287,-8808.450710,740.205942,-1838.629195
373.147603,-10510.924376,1258.350101,459.657299
373.147919,-10732.986159,962.267725,1532.190996
373.148234,-10066.800811,-444.123565,1149.143247
373.148550,-10288.862594,0.000000,689.485948
373.148865,-9622.677246,814.226536,76.609550
373.149181,-9770.718434,740.205942,229.828649
373.149496,-8956.491898,-296.082377,-919.314598
373.149812,-8068.244768,-1480.411884,-2145.067394
373.150128,-8290.306550,-1554.432478,-2451.505594
373.150443,-8956.491898,-1406.391290,-2451.505594
373.150759,-8882.471304,0.000000,-1532.190996
373.151074,-8586.388927,-888.247130,-1378.971896
373.151390,-9400.615463,0.000000,-1302.362347
373.151705,-9622.677246,296.082377,76.609550
373.152021,-10658.965565,370.102971,766.095498
373.152337,-9474.636058,222.061783,766.095498
373.152652,-10066.800811,74.020594,842.705048
373.152968,-10510.924376,296.082377,1225.752797
373.153283,-9696.697840,-148.041188,689.485948
373.153599,-9474.636058,-518.144159,0.000000
373.153914,-8512.368333,-592.164754,-766.095498
373.154230,-9252.574275,-740.205942,-459.657299
373.154546,-9622.677246,-814.226536,-842.705048
373.154861,-8882.471304,-1258.350101,-1302.362347
373.155177,-8808.450710,-1184.329507,-689.485948
373.155492,-9326.594869,-1332.370696,0.000000
373.155808,-9992.780217,-666.185348,383.047749
373.156123,-9770.718434,444.123565,995.924147
373.156439,-9622.677246,-370.102971,995.924147
373.156755,-9770.718434,0.000000,1149.143247
373.157070,-9992.780217,-296.082377,1072.533697
373.157386,-9548.656652,0.000000,1072.533697
373.157701,-10288.862594,-148.041188,995.924147
373.158017,-9474.636058,-666.185348,0.000000
373.158332,-9474.636058,-444.123565,0.000000
373.158648,-9326.594869,-370.102971,-153.219100
373.158964,-9104.533087,-518.144159,-1225.752797
373.159279,-9474.636058,-222.061783,-766.095498
373.159595,-9696.697840,-740.205942,76.609550
373.159910,-10214.842000,-814.226536,536.266849
373.160226,-9770.718434,-1850.514855,-306.438199
373.160542,-8808.450710,-1332.370696,-2451.505594
373.160857,-8586.388927,74.020594,-2068.457845
373.161173,-9548.656652,1702.473667,-842.705048
373.161488,-9400.615463,740.205942,-536.266849
373.161804,-10288.862594,0.000000,-383.047749
373.162119,-9622.677246,-1110.308913,0.000000
373.162435,-10140.821405,370.102971,-459.657299
373.162751,-10214.842000,1184.329507,76.609550
373.163066,-10436.903782,1184.329507,536.266849
373.163382,-9548.656652,-518.144159,153.219100
373.163697,-9474.636058,-962.267725,-1149.143247
373.164013,-9030.512492,-740.205942,-1225.752797
373.164328,-9474.636058,74.020594,-612.876398
373.164644,-9178.553681,-1036.288319,-1149.143247
373.164960,-8660.409521,-1998.556043,-459.657299
373.165275,-7772.162391,-518.144159,-2834.553343
373.165591,-9030.512492,222.061783,-1991.848295
373.165906,-9326.594869,-666.185348,-1072.533697
373.166222,-9474.636058,-1850.514855,-1915.238745
373.166537,-8512.368333,-518.144159,-1378.971896
373.166853,-9844.739029,518.144159,-383.047749
373.167169,-10436.903782,0.000000,0.000000
373.167484,-9918.759623,444.123565,153.219100
373.167800,-9474.636058,1406.391290,0.000000
373.168115,-10214.842000,-148.041188,459.657299
373.168431,-10436.903782,0.000000,229.828649
373.168746,-10214.842000,-222.061783,229.828649
373.169062,-9104.533087,-370.102971,0.000000
373.169378,-8290.306550,518.144159,-689.485948
373.169693,-10066.800811,-444.123565,-689.485948
373.170009,-9622.677246,-740.205942,-536.266849
373.170324,-8586.388927,-888.247130,-1149.143247
373.170640,-9178.553681,-1110.308913,536.266849
373.170955,-10288.862594,0.000000,-459.657299
373.171271,-9400.615463,-222.061783,-383.047749
373.171587,-9474.636058,-518.144159,0.000000
373.171902,-8882.471304,-444.123565,-383.047749
373.172218,-9030.512492,-814.226536,2145.067394
373.172533,-10066.800811,0.000000,229.828649
373.172849,-8956.491898,0.000000,153.219100
373.173164,-9622.677246,-444.123565,306.438199
373.173480,-9844.739029,0.000000,459.657299
373.173796,-10955.047942,-148.041188,612.876398
373.174111,-9696.697840,370.102971,459.657299
373.174427,-9474.636058,-666.185348,76.609550
373.174742,-10288.862594,-296.082377,153.219100
373.175058,-9548.656652,74.020594,306.438199
373.175374,-10066.800811,-296.082377,536.266849
373.175689,-8882.471304,-296.082377,153.219100
373.176005,-9474.636058,-888.247130,-153.219100
373.176320,-9474.636058,370.102971,459.657299
373.176636,-9770.718434,-1184.329507,459.657299
373.176951,-9326.594869,0.000000,-383.047749
373.177267,-8956.491898,-592.164754,-229.828649
373.177583,-9474.636058,-518.144159,-383.047749
373.177898,-9400.615463,-1110.308913,-689.485948
373.178214,-9252.574275,-592.164754,-459.657299
373.178529,-8956.491898,-814.226536,-766.095498
373.178845,-9474.636058,-814.226536,-995.924147
373.179160,-9400.615463,-148.041188,-459.657299
373.179476,-9326.594869,-518.144159,-536.266849
373.179792,-9178.553681,0.000000,-536.266849
373.180107,-9844.739029,-370.102971,-766.095498
373.180423,-10066.800811,296.082377,383.047749
373.180738,-9918.759623,296.082377,76.609550
373.181054,-9696.697840,1258.350101,-153.219100
373.181369,-9474.636058,148.041188,-459.657299
373.181685,-9918.759623,0.000000,-689.485948
373.182001,-9770.718434,296.082377,-536.266849
373.182316,-9030.512492,-518.144159,-995.924147
373.182632,-9326.594869,-444.123565,-1378.971896
373.182947,-8734.430116,0.000000,-1608.800546
373.183263,-9474.636058,-962.267725,-1532.190996
373.183578,-8734.430116,0.000000,-1072.533697
373.183894,-9474.636058,-518.144159,-2451.505594
373.184210,-9178.553681,-592.164754,-1225.752797
373.184525,-9252.574275,0.000000,-766.095498
373.184841,-9696.697840,-1184.329507,-1455.581446
373.185156,-9178.553681,0.000000,-1149.143247
373.185472,-10955.047942,-444.123565,-689.485948
373.185787,-9474.636058,-592.164754,-766.095498
373.186103,-9548.656652,592.164754,-536.266849
373.186419,-9992.780217,-444.123565,-612.876398
373.186734,-9992.780217,-296.082377,919.314598
373.187050,-9844.739029,0.000000,-153.219100
373.187365,-10066.800811,-518.144159,0.000000
373.187681,-9548.656652,444.123565,0.000000
373.187997,-9696.697840,222.061783,-459.657299
373.188312,-9622.677246,0.000000,689.485948
373.188628,-9474.636058,0.000000,-229.828649
373.188943,-9474.636058,-296.082377,-306.438199
373.189259,-9770.718434,-222.061783,0.000000
373.189574,-9400.615463,-444.123565,0.000000
373.189890,-9252.574275,-888.247130,-383.047749
373.190206,-9030.512492,-666.185348,0.000000
373.190521,-8882.471304,-518.144159,-229.828649
373.190837,-9400.615463,-666.185348,0.000000
373.191152,-9622.677246,-444.123565,383.047749
373.191468,-9400.615463,-518.144159,229.828649
373.191783,-9548.656652,-296.082377,919.314598
373.192099,-9844.739029,-222.061783,1072.533697
373.192415,-9992.780217,-222.061783,1149.143247
373.192730,-10066.800811,-148.041188,1685.410096
373.193046,-9548.656652,-222.061783,1149.143247
373.193361,-9992.780217,-444.123565,919.314598
373.193677,-9696.697840,-666.185348,689.485948
373.193992,-9474.636058,-592.164754,1991.848295
373.194308,-9178.553681,-740.205942,766.095498
373.194624,-9474.636058,-888.247130,383.047749
373.194939,-9252.574275,-962.267725,153.219100
373.195255,-9252.574275,-518.144159,76.609550
373.195570,-9622.677246,-1258.350101,0.000000
373.195886,-9252.574275,-518.144159,-459.657299
373.196201,-9252.574275,-666.185348,-459.657299
373.196517,-9400.615463,-222.061783,0.000000
373.196833,-9178.553681,-666.185348,0.000000
373.197148,-9770.718434,-1332.370696,-306.438199
373.197464,-9400.615463,0.000000,0.000000
373.197779,-9622.677246,222.061783,0.000000
373.198095,-9474.636058,296.082377,-153.219100
373.198410,-9474.636058,-592.164754,-153.219100
373.198726,-9326.594869,-370.102971,-1072.533697
373.199042,-9326.594869,-370.102971,-1225.752797
373.199357,-9252.574275,222.061783,-766.095498
373.199673,-9326.594869,0.000000,-919.314598
373.199988,-9252.574275,-592.164754,-1072.533697
373.200304,-9178.553681,-222.061783,-1378.971896
373.200620,-9400.615463,0.000000,-1302.362347
373.200935,-9622.677246,-296.082377,-919.314598
373.201251,-9252.574275,0.000000,-1072.533697
373.201566,-9622.677246,592.164754,-612.876398
373.201882,-9622.677246,74.020594,-459.657299
373.202197,-9770.718434,370.102971,0.000000
373.202513,-9770.718434,222.061783,383.047749
373.202829,-10214.842000,370.102971,689.485948
373.203144,-10140.821405,370.102971,1072.533697
373.203460,-10066.800811,148.041188,1072.533697
373.203775,-9622.677246,74.020594,1225.752797
373.204091,-9622.677246,-370.102971,689.485948
373.204406,-9474.636058,-296.082377,536.266849
373.204722,-9400.615463,-962.267725,153.219100
373.205038,-9104.533087,-1406.391290,0.000000
373.205353,-8956.491898,-1406.391290,-153.219100
373.205669,-8956.491898,-962.267725,153.219100
373.205984,-9030.512492,-1110.308913,-229.828649
373.206300,-9400.615463,-1110.308913,383.047749
373.206615,-9474.636058,-962.267725,842.705048
373.206931,-9696.697840,-740.205942,1149.143247
373.207247,-10214.842000,74.020594,689.485948
373.207562,-10288.862594,74.020594,2374.896044
373.207878,-10362.883188,740.205942,2604.724693
373.208193,-10436.903782,444.123565,2757.943793
373.208509,-10510.924376,296.082377,2911.162892
373.208824,-9918.759623,-444.123565,2374.896044
373.209140,-9844.739029,-222.061783,2298.286494
373.209456,-9474.636058,-666.185348,1915.238745
373.209771,-9326.594869,-1036.288319,1149.143247
373.210087,-8808.450710,-1184.329507,919.314598
373.210402,-8734.430116,-1332.370696,-306.438199
373.210718,-8586.388927,-1628.453072,0.000000
373.211033,-8438.347739,-1332.370696,-153.219100
373.211349,-8586.388927,-1406.391290,-459.657299
373.211665,-8808.450710,-1628.453072,1991.848295
373.211980,-9178.553681,-444.123565,0.000000
373.212296,-9326.594869,-296.082377,919.314598
373.212611,-9696.697840,0.000000,919.314598
373.212927,-9696.697840,0.000000,1072.533697
373.213242,-9770.718434,444.123565,1302.362347
373.213558,-9918.759623,666.185348,689.485948
373.213874,-9622.677246,0.000000,919.314598
373.214189,-9696.697840,740.205942,842.705048
373.214505,-9696.697840,0.000000,1378.971896
373.214820,-9548.656652,-740.205942,0.000000
373.215136,-8882.471304,0.000000,-229.828649
373.215452,-9400.615463,-1258.350101,-766.095498
373.215767,-8882.471304,-1332.370696,-1149.143247
373.216083,-8586.388927,-444.123565,-995.924147
373.216398,-9030.512492,-1406.391290,-1302.362347
373.216714,-8882.471304,370.102971,-995.924147
373.217029,-9474.636058,-666.185348,-612.876398
373.217345,-9474.636058,-740.205942,-689.485948
373.217661,-8956.491898,370.102971,-383.047749
373.217976,-10214.842000,-518.144159,0.000000
373.218292,-9252.574275,518.144159,306.438199
373.218607,-9918.759623,0.000000,306.438199
373.218923,-8364.327145,222.061783,-229.828649
373.219238,-9474.636058,-296.082377,383.047749
373.219554,-10288.862594,74.020594,383.047749
373.219870,-9178.553681,-888.247130,153.219100
373.220185,-10066.800811,-370.102971,0.000000
373.220501,-9326.594869,-814.226536,0.000000
373.220816,-10214.842000,-296.082377,536.266849
373.221132,-9474.636058,-370.102971,689.485948
373.221447,-9770.718434,-592.164754,612.876398
373.221763,-9474.636058,296.082377,919.314598
373.222079,-10362.883188,-518.144159,919.314598
373.222394,-9844.739029,370.102971,1225.752797
373.222710,-9696.697840,-888.247130,919.314598
373.223025,-9548.656652,592.164754,766.095498
373.223341,-10066.800811,-222.061783,995.924147
373.223656,-10066.800811,0.000000,842.705048
373.223972,-9030.512492,-370.102971,919.314598
373.224288,-10066.800811,-740.205942,689.485948
373.224603,-9104.533087,-148.041188,766.095498
373.224919,-9918.759623,0.000000,536.266849
373.225234,-9474.636058,-444.123565,1072.533697
373.225550,-9400.615463,-296.082377,536.266849
373.225865,-9992.780217,-444.123565,1532.190996
373.226181,-9696.697840,-592.164754,689.485948
373.226497,-9178.553681,0.000000,2451.505594
373.226812,-9844.739029,-592.164754,1838.629195
373.227128,-9252.574275,-592.164754,842.705048
373.227443,-9770.718434,0.000000,1455.581446
373.227759,-7920.203579,-1110.308913,1225.752797
373.228075,-8734.430116,-1036.288319,612.876398
373.228390,-8734.430116,-370.102971,0.000000
373.228706,-9622.677246,-1184.329507,306.438199
373.229021,-9030.512492,-962.267725,229.828649
373.229337,-7772.162391,-1110.308913,-459.657299
373.229652,-9474.636058,0.000000,153.219100
373.229968,-9474.636058,-962.267725,459.657299
373.230284,-9400.615463,-592.164754,0.000000
373.230599,-9696.697840,740.205942,1838.629195
373.230915,-9770.718434,0.000000,1225.752797
373.231230,-9474.636058,-444.123565,306.438199
373.231546,-9622.677246,-370.102971,0.000000
373.231861,-8808.450710,444.123565,229.828649
373.232177,-9474.636058,444.123565,919.314598
373.232493,-10066.800811,-1258.350101,0.000000
373.232808,-8586.388927,-962.267725,-1072.533697
373.233124,-8512.368333,0.000000,-842.705048
373.233439,-9178.553681,296.082377,0.000000
373.233755,-10066.800811,-370.102971,229.828649
373.234070,-9178.553681,-1628.453072,-536.266849
373.234386,-8068.244768,-888.247130,-1378.971896
373.234702,-9474.636058,592.164754,-612.876398
373.235017,-10881.027347,1480.411884,612.876398
373.235333,-9992.780217,148.041188,995.924147
373.235648,-9178.553681,-1184.329507,0.000000
373.235964,-9326.594869,-518.144159,-766.095498
373.236279,-9548.656652,74.020594,0.000000
373.236595,-9548.656652,74.020594,0.000000
373.236911,-8734.430116,370.102971,0.000000
373.237226,-9474.636058,296.082377,0.000000
373.237542,-10362.883188,0.000000,459.657299
373.237857,-11029.068536,-148.041188,1455.581446
373.238173,-9474.636058,-1258.350101,919.314598
373.238488,-9030.512492,-1850.514855,-306.438199
373.238804,-9326.594869,-814.226536,-689.485948
373.239120,-9252.574275,370.102971,-229.828649
373.239435,-9696.697840,-222.061783,76.609550
373.239751,-9178.553681,-1184.329507,-153.219100
373.240066,-9622.677246,-666.185348,229.828649
373.240382,-10510.924376,148.041188,1455.581446
373.240698,-10881.027347,666.185348,2145.067394
373.241013,-9622.677246,370.102971,1838.629195
373.241329,-9696.697840,592.164754,2068.457845
373.241644,-10066.800811,444.123565,1915.238745
373.241960,-10584.944971,-592.164754,2221.676944
373.242275,-9548.656652,-962.267725,995.924147
373.242591,-8734.430116,-1110.308913,229.828649
373.242907,-9104.533087,-1184.329507,-229.828649
373.243222,-8808.450710,-666.185348,0.000000
373.243538,-8734.430116,-814.226536,-612.876398
373.243853,-8660.409521,-962.267725,-919.314598
373.244169,-9178.553681,-1036.288319,-306.438199
373.244484,-10066.800811,-592.164754,1072.533697
373.244800,-10362.883188,-148.041188,1378.971896
373.245116,-9770.718434,-148.041188,1302.362347
373.245431,-9474.636058,-222.061783,1302.362347
373.245747,-10140.821405,-296.082377,1302.362347
373.246062,-9992.780217,0.000000,1762.019645
373.246378,-9252.574275,-444.123565,612.876398
373.246693,-9104.533087,-1776.494261,-306.438199
373.247009,-9178.553681,-888.247130,-612.876398
373.247325,-9104.533087,-444.123565,-536.266849
373.247640,-8734.430116,-592.164754,-919.314598
373.247956,-8808.450710,-370.102971,-1225.752797
373.248271,-8882.471304,0.000000,-1532.190996
373.248587,-9474.636058,0.000000,0.000000
373.248902,-9548.656652,0.000000,0.000000
373.249218,-9400.615463,0.000000,153.219100
373.249534,-9622.677246,-222.061783,0.000000
373.249849,-9178.553681,-296.082377,0.000000
373.250165,-8734.430116,962.267725,0.000000
373.250480,-9104.533087,2368.659014,919.314598
373.250796,-10658.965565,1036.288319,2374.896044
373.251111,-10140.821405,0.000000,2451.505594
373.251427,-9474.636058,-1110.308913,1225.752797
373.251743,-8956.491898,-888.247130,306.438199
373.252058,-8734.430116,-296.082377,0.000000
373.252374,-9104.533087,-592.164754,-229.828649
373.252689,-8438.347739,-1554.432478,306.438199
373.253005,-7698.141797,-2590.720797,-1378.971896
373.253320,-8808.450710,-2738.761985,-1838.629195
373.253636,-8734.430116,-1184.329507,-842.705048
373.253952,-9400.615463,-666.185348,76.609550
373.254267,-9770.718434,-296.082377,383.047749
373.254583,-9400.615463,-740.205942,459.657299
373.254898,-10066.800811,1036.288319,1455.581446
373.255214,-10732.986159,1258.350101,2757.943793
373.255529,-12435.459826,962.267725,4903.011187
373.255845,-10510.924376,0.000000,2298.286494
373.256161,-10510.924376,1110.308913,1991.848295
373.256476,-10288.862594,1184.329507,2374.896044
373.256792,-10288.862594,0.000000,1302.362347
373.257107,-8956.491898,-1110.308913,-306.438199
373.257423,-8808.450710,-888.247130,-689.485948
373.257738,-9030.512492,-1258.350101,-1072.533697
373.258054,-9030.512492,-1924.535449,-1302.362347
373.258370,-7920.203579,-1480.411884,-1532.190996
373.258685,-8216.285956,-1480.411884,-1072.533697
373.259001,-8956.491898,-444.123565,-766.095498
373.259316,-9918.759623,0.000000,459.657299
373.259632,-10584.944971,-296.082377,1225.752797
373.259948,-9178.553681,444.123565,-459.657299
373.260263,-10510.924376,1406.391290,1838.629195
373.260579,-11621.233289,1110.308913,2757.943793
373.260894,-10436.903782,1850.514855,2451.505594
373.261210,-10214.842000,740.205942,1991.848295
373.261525,-10658.965565,0.000000,1608.800546
373.261841,-9992.780217,296.082377,1149.143247
373.262157,-9992.780217,-1036.288319,689.485948
373.262472,-8734.430116,-740.205942,-306.438199
373.262788,-9030.512492,-2294.638420,-842.705048
373.263103,-9474.636058,-1258.350101,-383.047749
373.263419,-8512.368333,-1184.329507,0.000000
373.263734,-9030.512492,-1332.370696,-459.657299
373.264050,-8290.306550,-592.164754,-689.485948
373.264366,-9178.553681,-1110.308913,-383.047749
373.264681,-9474.636058,0.000000,306.438199
373.264997,-8956.491898,-296.082377,689.485948
373.265312,-9548.656652,74.020594,1149.143247
373.265628,-9104.533087,-1110.308913,459.657299
373.265943,-9844.739029,518.144159,383.047749
373.266259,-9030.512492,-592.164754,612.876398
373.266575,-9770.718434,-444.123565,0.000000
373.266890,-8882.471304,-148.041188,153.219100
373.267206,-9844.739029,-222.061783,536.266849
373.267521,-9474.636058,-444.123565,153.219100
373.267837,-9622.677246,-518.144159,536.266849
373.268152,-9178.553681,-296.082377,459.657299
373.268468,-9844.739029,148.041188,995.924147
373.268784,-8142.265362,148.041188,1378.971896
373.269099,-9770.718434,0.000000,1072.533697
373.269415,-9252.574275,-518.144159,689.485948
373.269730,-9770.718434,0.000000,689.485948
373.270046,-9030.512492,-296.082377,536.266849
373.270361,-8734.430116,-592.164754,0.000000
373.270677,-8586.388927,-444.123565,-536.266849
373.270993,-8808.450710,-1480.411884,-612.876398
373.271308,-9104.533087,-370.102971,-536.266849
373.271624,-9622.677246,-1554.432478,153.219100
373.271939,-9326.594869,-370.102971,0.000000
373.272255,-9178.553681,-740.205942,306.438199
373.272570,-10214.842000,-518.144159,842.705048
373.272886,-9474.636058,444.123565,1532.190996
373.273202,-10732.986159,-148.041188,1302.362347
373.273517,-10214.842000,814.226536,2374.896044
373.273833,-10732.986159,0.000000,2145.067394
373.274148,-10658.965565,-148.041188,2145.067394
373.274464,-9696.697840,518.144159,2221.676944
373.274779,-9918.759623,-370.102971,1762.019645
373.275095,-9178.553681,-370.102971,995.924147
373.275411,-9326.594869,-592.164754,229.828649
373.275726,-8660.409521,-1776.494261,0.000000
373.276042,-8660.409521,-296.082377,-842.705048
373.276357,-9252.574275,-1554.432478,-306.438199
373.276673,-8956.491898,-1332.370696,-383.047749
373.276988,-8734.430116,-444.123565,76.609550
373.277304,-9548.656652,-962.267725,153.219100
373.277620,-9548.656652,-666.185348,842.705048
373.277935,-9548.656652,0.000000,919.314598
373.278251,-9918.759623,-296.082377,1072.533697
373.278566,-9844.739029,0.000000,919.314598
373.278882,-10066.800811,222.061783,1378.971896
373.279198,-9844.739029,74.020594,1302.362347
373.279513,-10214.842000,444.123565,919.314598
373.279829,-9918.759623,0.000000,842.705048
373.280144,-9918.759623,0.000000,383.047749
373.280460,-10658.965565,740.205942,-383.047749
373.280775,-9474.636058,148.041188,153.219100
373.281091,-9252.574275,-148.041188,-306.438199
373.281407,-9178.553681,-592.164754,-766.095498
373.281722,-9400.615463,-370.102971,-306.438199
373.282038,-8512.368333,-370.102971,-459.657299
373.282353,-9104.533087,-296.082377,-612.876398
373.282669,-9252.574275,-444.123565,-536.266849
373.282984,-9178.553681,-370.102971,-919.314598
373.283300,-9030.512492,-444.123565,-1149.143247
373.283616,-9400.615463,-296.082377,-229.828649
373.283931,-9400.615463,-148.041188,-383.047749
373.284247,-9622.677246,0.000000,76.609550
373.284562,-9918.759623,-148.041188,76.609550
373.284878,-9622.677246,-666.185348,-766.095498
373.285193,-9548.656652,-148.041188,0.000000
373.285509,-9696.697840,370.102971,536.266849
373.285825,-9992.780217,148.041188,1302.362347
373.286140,-10066.800811,-148.041188,1225.752797
373.286456,-9548.656652,-296.082377,842.705048
373.286771,-9474.636058,-148.041188,995.924147
373.287087,-9696.697840,0.000000,1302.362347
373.287402,-9770.718434,-444.123565,1225.752797
373.287718,-8660.409521,-1628.453072,2221.676944
373.288034,-8660.409521,-592.164754,0.000000
373.288349,-8882.471304,-1332.370696,-383.047749
373.288665,-8882.471304,-1628.453072,-536.266849
373.288980,-8216.285956,-2294.638420,-1072.533697
373.289296,-7846.182985,-2146.597232,-1149.143247
373.289611,-8512.368333,-888.247130,-1149.143247
373.289927,-9474.636058,-444.123565,0.000000
373.290243,-9770.718434,-592.164754,612.876398
373.290558,-9696.697840,-888.247130,383.047749
373.290874,-9696.697840,370.102971,919.314598
373.291189,-11029.068536,740.205942,1762.019645
373.291505,-10881.027347,666.185348,1991.848295
373.291820,-10288.862594,444.123565,1072.533697
373.292136,-9992.780217,296.082377,1225.752797
373.292452,-10066.800811,222.061783,536.266849
373.292767,-9992.780217,0.000000,76.609550
373.293083,-9548.656652,-444.123565,-229.828649
373.293398,-9104.533087,-1036.288319,-1378.971896
373.293714,-8586.388927,-1110.308913,-1455.581446
373.294029,-8956.491898,-444.123565,-2068.457845
373.294345,-8882.471304,-296.082377,-1838.629195
373.294661,-8808.450710,-592.164754,-2068.457845
373.294976,-9548.656652,-814.226536,-1302.362347
373.295292,-9696.697840,-296.082377,-1378.971896
373.295607,-9844.739029,518.144159,-842.705048
373.295923,-9844.739029,222.061783,-229.828649
373.296238,-9844.739029,0.000000,-459.657299
373.296554,-9474.636058,518.144159,-229.828649
373.296870,-10362.883188,222.061783,0.000000
373.297185,-10066.800811,296.082377,-229.828649
373.297501,-9844.739029,0.000000,-842.705048
373.297816,-9548.656652,-740.205942,-919.314598
373.298132,-9474.636058,-592.164754,-2298.286494
373.298447,-9474.636058,-444.123565,-1302.362347
373.298763,-9252.574275,0.000000,-1072.533697
373.299079,-9252.574275,-148.041188,-995.924147
373.299394,-9474.636058,-148.041188,-612.876398
373.299710,-9030.512492,-296.082377,-383.047749
373.300025,-9844.739029,-444.123565,-306.438199
373.300341,-9474.636058,0.000000,0.000000
373.300657,-9400.615463,518.144159,153.219100
373.300972,-9696.697840,0.000000,229.828649
373.301288,-9030.512492,-592.164754,0.000000
373.301603,-8956.491898,-888.247130,-153.219100
373.301919,-9030.512492,-1480.411884,-383.047749
373.302234,-9030.512492,-1554.432478,-612.876398
373.302550,-8808.450710,-1332.370696,0.000000
373.302866,-8364.327145,-1406.391290,-536.266849
373.303181,-9030.512492,-888.247130,-995.924147
373.303497,-9474.636058,-518.144159,-459.657299
373.303812,-9474.636058,-888.247130,612.876398
373.304128,-9548.656652,0.000000,306.438199
373.304443,-9992.780217,-370.102971,153.219100
373.304759,-10066.800811,0.000000,689.485948
373.305075,-9918.759623,1258.350101,1378.971896
373.305390,-10288.862594,-888.247130,1685.410096
373.305706,-9474.636058,962.267725,1149.143247
373.306021,-9548.656652,444.123565,919.314598
373.306337,-9992.780217,0.000000,919.314598
373.306652,-9252.574275,296.082377,459.657299
373.306968,-9992.780217,-740.205942,459.657299
373.307284,-8808.450710,-222.061783,-689.485948
373.307599,-8808.450710,-1184.329507,-1378.971896
373.307915,-8808.450710,-1110.308913,-1685.410096
373.308230,-8216.285956,-1332.370696,-459.657299
373.308546,-9104.533087,-1036.288319,-2145.067394
373.308861,-9178.553681,-1184.329507,-1149.143247
373.309177,-9844.739029,148.041188,-536.266849
373.309493,-9548.656652,-740.205942,0.000000
373.309808,-10362.883188,666.185348,-766.095498
373.310124,-10214.842000,148.041188,842.705048
373.310439,-10658.965565,962.267725,1149.143247
373.310755,-10066.800811,222.061783,1149.143247
373.311070,-10066.800811,74.020594,459.657299
373.311386,-9104.533087,74.020594,-612.876398
373.311702,-10362.883188,-148.041188,-383.047749
373.312017,-9178.553681,0.000000,-1149.143247
373.312333,-9400.615463,-1184.329507,-1378.971896
373.312648,-8438.347739,-222.061783,-1608.800546
373.312964,-9030.512492,-1332.370696,-1608.800546
373.313279,-9030.512492,-370.102971,-1762.019645
373.313595,-8734.430116,-1184.329507,-1532.190996
373.313911,-9400.615463,-444.123565,-1455.581446
373.314226,-8956.491898,-518.144159,-2145.067394
373.314542,-9548.656652,74.020594,-229.828649
373.314857,-9844.739029,0.000000,-383.047749
373.315173,-9252.574275,296.082377,-536.266849
373.315488,-10436.903782,148.041188,306.438199
373.315804,-9770.718434,-222.061783,-2145.067394
373.316120,-9696.697840,444.123565,-229.828649
373.316435,-10288.862594,0.000000,-306.438199
373.316751,-9474.636058,-296.082377,-459.657299
373.317066,-9918.759623,370.102971,766.095498
373.317382,-10362.883188,0.000000,-229.828649
373.317697,-9474.636058,-962.267725,-459.657299
373.318013,-9326.594869,148.041188,-689.485948
373.318329,-9918.759623,-518.144159,0.000000
373.318644,-9252.574275,-444.123565,153.219100
373.318960,-9104.533087,-370.102971,-689.485948
373.319275,-9548.656652,148.041188,0.000000
373.319591,-9770.718434,-296.082377,76.609550
373.319907,-9400.615463,-1776.494261,-1072.533697
373.320222,-9622.677246,-518.144159,-995.924147
373.320538,-9030.512492,0.000000,76.609550
373.320853,-9770.718434,-814.226536,0.000000
373.321169,-9252.574275,-1332.370696,-229.828649
373.321484,-8808.450710,-370.102971,-766.095498
373.321800,-8882.471304,74.020594,536.266849
373.322116,-10658.965565,-518.144159,1072.533697
373.322431,-9918.759623,-1850.514855,229.828649
373.322747,-8882.471304,-1036.288319,-306.438199
373.323062,-8808.450710,296.082377,1608.800546
373.323378,-10362.883188,0.000000,842.705048
373.323693,-10288.862594,0.000000,766.095498
373.324009,-8956.491898,-1480.411884,0.000000
373.324325,-8660.409521,-962.267725,-459.657299
373.324640,-9178.553681,-222.061783,-536.266849
373.324956,-9770.718434,888.247130,383.047749
373.325271,-9326.594869,74.020594,229.828649
373.325587,-9030.512492,-148.041188,-536.266849
373.325902,-9548.656652,-888.247130,-229.828649
373.326218,-10066.800811,-666.185348,0.000000
373.326534,-9252.574275,-444.123565,0.000000
373.326849,-8586.388927,-592.164754,-1302.362347
373.327165,-8586.388927,-444.123565,-1532.190996
373.327480,-9770.718434,1258.350101,536.266849
373.327796,-9548.656652,444.123565,612.876398
373.328111,-9622.677246,-814.226536,612.876398
373.328427,-10140.821405,-1258.350101,229.828649
373.328743,-10436.903782,-370.102971,383.047749
373.329058,-9622.677246,-444.123565,842.705048
373.329374,-9770.718434,-296.082377,-306.438199
373.329689,-8808.450710,-740.205942,-1302.362347
373.330005,-8882.471304,-1036.288319,-1762.019645
373.330320,-9474.636058,-1184.329507,-995.924147
373.330636,-9474.636058,-1184.329507,-1762.019645
373.330952,-8882.471304,-148.041188,-1838.629195
373.331267,-9326.594869,-296.082377,-1149.143247
373.331583,-10140.821405,518.144159,-459.657299
373.331898,-10288.862594,222.061783,-536.266849
373.332214,-10214.842000,222.061783,0.000000
373.332529,-9918.759623,370.102971,459.657299
373.332845,-10584.944971,296.082377,612.876398
373.333161,-10214.842000,370.102971,612.876398
373.333476,-9474.636058,296.082377,919.314598
373.333792,-8882.471304,0.000000,-919.314598
373.334107,-9252.574275,0.000000,-995.924147
373.334423,-9548.656652,-370.102971,-919.314598
373.334738,-9252.574275,-666.185348,0.000000
373.335054,-8660.409521,-1258.350101,-919.314598
373.335370,-9474.636058,-1184.329507,-766.095498
373.335685,-9548.656652,-666.185348,0.000000
373.336001,-9400.615463,-518.144159,153.219100
373.336316,-9548.656652,-296.082377,1302.362347
373.336632,-9844.739029,-740.205942,766.095498
373.336947,-9992.780217,-518.144159,766.095498
373.337263,-9474.636058,-370.102971,536.266849
373.337579,-9474.636058,-148.041188,0.000000
373.337894,-9474.636058,0.000000,229.828649
373.338210,-9548.656652,0.000000,0.000000
373.338525,-9474.636058,0.000000,-153.219100
373.338841,-9474.636058,-592.164754,76.609550
373.339156,-9770.718434,-2664.741391,2145.067394
373.339472,-8882.471304,-1776.494261,-1685.410096
373.339788,-8438.347739,-666.185348,-1608.800546
373.340103,-9252.574275,666.185348,-1225.752797
373.340419,-9326.594869,296.082377,-229.828649
373.340734,-10066.800811,148.041188,766.095498
373.341050,-9622.677246,-666.185348,306.438199
373.341366,-9770.718434,74.020594,306.438199
373.341681,-10066.800811,962.267725,689.485948
373.341997,-10362.883188,1184.329507,995.924147
373.342312,-9400.615463,148.041188,1072.533697
373.342628,-9252.574275,-1184.329507,-459.657299
373.342943,-8956.491898,-888.247130,-1149.143247
373.343259,-9400.615463,-296.082377,-995.924147
373.343575,-9030.512492,-1258.350101,-766.095498
373.343890,-8734.430116,-2368.659014,-2374.896044
373.344206,-7772.162391,-1184.329507,-2604.724693
373.344521,-8512.368333,0.000000,-1762.019645
373.344837,-9474.636058,-148.041188,-459.657299
373.345153,-9918.759623,-1554.432478,-1762.019645
373.345468,-9252.574275,-370.102971,-766.095498
373.345784,-9844.739029,888.247130,0.000000
373.346100,-10881.027347,296.082377,919.314598
373.346415,-10362.883188,592.164754,995.924147
373.346731,-9770.718434,518.144159,0.000000
373.347046,-10066.800811,370.102971,459.657299
373.347362,-10066.800811,148.041188,-229.828649
373.347678,-10140.821405,0.000000,153.219100
373.347993,-9622.677246,-592.164754,-842.705048
373.348309,-8068.244768,-814.226536,-2451.505594
373.348624,-9474.636058,-740.205942,-1838.629195
373.348940,-9474.636058,-1036.288319,-1149.143247
373.349256,-8438.347739,-1480.411884,-1915.238745
373.349571,-8586.388927,-1258.350101,-1762.019645
373.349887,-9622.677246,-1184.329507,-995.924147
373.350202,-9622.677246,-592.164754,-383.047749
373.350518,-9992.780217,-296.082377,0.000000
373.350834,-9474.636058,148.041188,0.000000
373.351149,-9622.677246,518.144159,0.000000
373.351465,-10881.027347,370.102971,689.485948
373.351780,-9474.636058,518.144159,306.438199
373.352096,-9992.780217,296.082377,153.219100
373.352412,-9770.718434,592.164754,0.000000
373.352727,-10066.800811,-1110.308913,459.657299
373.353043,-9622.677246,518.144159,0.000000
373.353358,-9178.553681,-296.082377,-459.657299
373.353674,-9992.780217,-148.041188,-229.828649
373.353990,-9474.636058,-1332.370696,-536.266849
373.354305,-9696.697840,0.000000,229.828649
373.354621,-9104.533087,0.000000,0.000000
373.354936,-9474.636058,-962.267725,-536.266849
373.355252,-9326.594869,0.000000,0.000000
373.355568,-8956.491898,-1554.432478,0.000000
373.355883,-9178.553681,-592.164754,-306.438199
373.356199,-9178.553681,-888.247130,-153.219100
373.356515,-9030.512492,-814.226536,-766.095498
373.356830,-9474.636058,-518.144159,306.438199
373.357146,-9252.574275,-740.205942,-153.219100
373.357461,-9252.574275,-740.205942,-766.095498
373.357777,-9622.677246,-814.226536,-306.438199
373.358093,-9844.739029,-148.041188,0.000000
373.358408,-8438.347739,-740.205942,2221.676944
373.358724,-9696.697840,0.000000,-229.828649
373.359039,-9622.677246,0.000000,-229.828649
373.359355,-9770.718434,148.041188,612.876398
373.359671,-9844.739029,370.102971,306.438199
373.359986,-9548.656652,0.000000,0.000000
373.360302,-9474.636058,296.082377,-306.438199
373.360617,-9104.533087,-296.082377,-766.095498
373.360933,-9548.656652,222.061783,-612.876398
373.361249,-8364.327145,-222.061783,-1149.143247
373.361564,-9326.594869,-518.144159,-1532.190996
373.361880,-8586.388927,0.000000,-1378.971896
373.362195,-9770.718434,-1332.370696,-1455.581446
373.362511,-8882.471304,-444.123565,-1302.362347
373.362827,-9104.533087,-1036.288319,-1149.143247
373.363142,-9474.636058,-1184.329507,-1072.533697
373.363458,-9104.533087,74.020594,-536.266849
373.363773,-10140.821405,-444.123565,-842.705048
373.364089,-9400.615463,-518.144159,-459.657299
373.364405,-10362.883188,1184.329507,-2221.676944
373.364720,-10214.842000,-592.164754,-689.485948
373.365036,-9622.677246,222.061783,-306.438199
373.365352,-9844.739029,888.247130,-766.095498
373.365667,-10140.821405,74.020594,-536.266849
373.365983,-9474.636058,370.102971,-306.438199
373.366298,-9992.780217,0.000000,-612.876398
373.366614,-9622.677246,0.000000,-689.485948
373.366930,-9252.574275,74.020594,-689.485948
373.367245,-9474.636058,518.144159,-1455.581446
373.367561,-9104.533087,-148.041188,-153.219100
373.367876,-9326.594869,-296.082377,-536.266849
373.368192,-9178.553681,-592.164754,-306.438199
373.368508,-9474.636058,-740.205942,-306.438199
373.368823,-9844.739029,-814.226536,766.095498
373.369139,-9178.553681,-814.226536,-383.047749
373.369454,-9252.574275,-370.102971,0.000000
373.369770,-9770.718434,-296.082377,229.828649
373.370086,-9770.718434,-370.102971,306.438199
373.370401,-9770.718434,-222.061783,459.657299
373.370717,-9696.697840,-222.061783,153.219100
373.371032,-9992.780217,0.000000,612.876398
373.371348,-9770.718434,0.000000,766.095498
373.371664,-9548.656652,-444.123565,3447.429741
373.371979,-9474.636058,-888.247130,153.219100
373.372295,-9474.636058,-962.267725,0.000000
373.372610,-9252.574275,-1110.308913,0.000000
373.372926,-9326.594869,-1036.288319,229.828649
373.373242,-8290.306550,-1110.308913,-76.609550
373.373557,-9696.697840,-222.061783,612.876398
373.373873,-9992.780217,0.000000,1378.971896
373.374188,-10066.800811,-444.123565,1072.533697
373.374504,-9400.615463,0.000000,842.705048
373.374820,-9696.697840,222.061783,-766.095498
373.375135,-9400.615463,296.082377,0.000000
373.375451,-9770.718434,0.000000,459.657299
373.375767,-9474.636058,-518.144159,-229.828649
373.376082,-9474.636058,-592.164754,0.000000
373.376398,-9030.512492,-740.205942,-1072.533697
373.376713,-9104.533087,-962.267725,-1225.752797
373.377029,-8956.491898,-666.185348,-919.314598
373.377345,-9104.533087,-1258.350101,-1072.533697
373.377660,-8660.409521,-1184.329507,-1991.848295
373.377976,-9178.553681,-444.123565,-1072.533697
373.378291,-9918.759623,-370.102971,-689.485948
373.378607,-9696.697840,0.000000,-306.438199
373.378923,-9992.780217,814.226536,0.000000
373.379238,-9696.697840,888.247130,229.828649
373.379554,-10436.903782,1184.329507,689.485948
373.379869,-9918.759623,888.247130,306.438199
373.380185,-10214.842000,518.144159,536.266849
373.380501,-9400.615463,740.205942,1072.533697
373.380816,-9918.759623,296.082377,0.000000
373.381132,-9326.594869,370.102971,459.657299
373.381447,-8808.450710,-592.164754,-306.438199
373.381763,-8808.450710,-1184.329507,-383.047749
373.382079,-8956.491898,-592.164754,-919.314598
373.382394,-8882.471304,-1480.411884,-229.828649
373.382710,-8586.388927,-1258.350101,-612.876398
373.383025,-8660.409521,-1776.494261,-306.438199
373.383341,-9030.512492,-1184.329507,1378.971896
373.383657,-9844.739029,-962.267725,76.609550
373.383972,-9622.677246,-592.164754,842.705048
373.384288,-9622.677246,-592.164754,995.924147
373.384604,-10288.862594,0.000000,1608.800546
373.384919,-10288.862594,296.082377,2221.676944
373.385235,-10288.862594,296.082377,2374.896044
373.385550,-10436.903782,222.061783,2145.067394
373.385866,-10584.944971,148.041188,2451.505594
373.386182,-10288.862594,222.061783,1991.848295
373.386497,-9474.636058,148.041188,2451.505594
373.386813,-9770.718434,-148.041188,1685.410096
373.387128,-9474.636058,-518.144159,1685.410096
373.387444,-9400.615463,-666.185348,1225.752797
373.387760,-9178.553681,-148.041188,1149.143247
373.388075,-8956.491898,-1332.370696,1302.362347
373.388391,-8734.430116,-1406.391290,306.438199
373.388706,-8734.430116,-1184.329507,76.609550
373.389022,-8586.388927,-740.205942,-229.828649
373.389338,-9178.553681,-814.226536,-1072.533697
373.389653,-8882.471304,-888.247130,-229.828649
373.389969,-9104.533087,-666.185348,0.000000
373.390284,-9622.677246,-222.061783,153.219100
373.390600,-10066.800811,0.000000,612.876398
373.390916,-9326.594869,0.000000,1608.800546
373.391231,-9844.739029,370.102971,842.705048
373.391547,-10066.800811,222.061783,995.924147
373.391862,-9992.780217,-296.082377,1072.533697
373.392178,-9844.739029,1702.473667,842.705048
373.392494,-9844.739029,-222.061783,842.705048
373.392809,-9696.697840,222.061783,842.705048
373.393125,-9474.636058,148.041188,689.485948
373.393440,-9400.615463,-1480.411884,0.000000
373.393756,-7994.224174,444.123565,-1762.019645
373.394072,-9030.512492,-814.226536,-536.266849
373.394387,-9030.512492,-592.164754,-689.485948
373.394703,-8512.368333,-222.061783,-919.314598
373.395019,-9252.574275,-1776.494261,-1225.752797
373.395334,-8438.347739,0.000000,-842.705048
373.395650,-9474.636058,-1184.329507,-306.438199
373.395965,-9474.636058,-592.164754,-153.219100
373.396281,-8734.430116,-592.164754,0.000000
373.396597,-9400.615463,740.205942,153.219100
373.396912,-9400.615463,-666.185348,842.705048
373.397228,-10436.903782,296.082377,995.924147
373.397543,-9400.615463,-888.247130,536.266849
373.397859,-10362.883188,148.041188,842.705048
373.398175,-9918.759623,0.000000,383.047749
373.398490,-10214.842000,0.000000,995.924147
373.398806,-9326.594869,0.000000,689.485948
373.399121,-9770.718434,-666.185348,383.047749
373.399437,-9400.615463,74.020594,536.266849
373.399753,-10288.862594,-592.164754,536.266849
373.400068,-9178.553681,0.000000,306.438199
373.400384,-9474.636058,-888.247130,229.828649
373.400699,-9178.553681,222.061783,383.047749
373.401015,-9326.594869,-1184.329507,229.828649
373.401331,-9622.677246,-296.082377,0.000000
373.401646,-8808.450710,-592.164754,229.828649
373.401962,-10066.800811,-296.082377,919.314598
373.402277,-9474.636058,-444.123565,995.924147
373.402593,-8956.491898,444.123565,1608.800546
373.402909,-9992.780217,-296.082377,1685.410096
373.403224,-9252.574275,-222.061783,1225.752797
373.403540,-10066.800811,0.000000,1685.410096
